TimeStamp,ax,ay,az,gx,gy,gz,mx,my,mz
518778.7677,342.027,-107.421,957.761,-953.75,-2406.25,-323.75,-117.04,1.52,-250.8
518778.8177,339.221,-100.223,965.874,-2117.5,1102.5,-4471.25,-115.52,-12.16,-252.32
518778.8677,307.135,-81.008,975.817,-5477.5,-4261.25,-6536.25,-92.72,-6.08,-246.24
518778.9177,298.595,-113.277,980.697,-3106.25,-428.75,-7297.5,-100.32,-12.16,-261.44
518778.9678,297.863,-93.025,975.695,-5652.5,-4121.25,-4742.5,-97.28,-9.12,-261.44
518779.0177,320.86,-140.483,988.383,-4261.25,-3316.25,-6002.5,-94.24,-16.72,-252.32
518779.0677,296.643,-75.64,959.957,-3176.25,-6116.25,-3605.0,-94.24,-25.84,-244.72
518779.1177,343.674,-161.467,979.172,-5407.5,-770.0,-481.25,-94.24,3.04,-234.08
518779.1677,296.582,-119.865,971.486,463.75,-2651.25,-4637.5,-98.8,-4.56,-250.8
518779.2177,312.869,-114.741,979.416,-437.5,-4261.25,-2336.25,-95.76,-3.04,-247.76
518779.2677,315.37,-118.523,980.087,341.25,-3850.0,-1828.75,-97.28,-21.28,-272.08
518779.3177,307.562,-101.626,970.937,1023.75,-3001.25,-2975.0,-107.92,-15.2,-249.28
518779.3677,312.442,-99.308,983.686,1032.5,-2756.25,-4620.0,-109.44,-16.72,-267.52
518779.4177,346.541,-69.601,961.482,-4532.5,-6212.5,-6160.0,-100.32,-13.68,-270.56
518779.4677,352.824,-95.343,971.486,-4130.0,-5547.5,-3753.75,-118.56,-15.2,-246.24
518779.5177,352.397,-82.838,956.236,3185.0,-4515.0,2485.0,-98.8,-21.28,-252.32
518779.5677,335.439,-78.873,955.138,2143.75,-2765.0,5547.5,-114.0,-12.16,-264.48
518779.6177,342.454,-84.546,975.085,1277.5,1312.5,2765.0,-95.76,-6.08,-259.92
518779.6677,286.578,-69.052,982.832,-3780.0,813.75,-5757.5,-100.32,-13.68,-264.48
518779.7177,291.092,-79.422,976.915,-7437.5,-1146.25,-7787.5,-92.72,-22.8,-275.12
518779.7677,296.277,-110.532,986.248,-6247.5,-3167.5,-4751.25,-110.96,-16.72,-267.52
518779.8177,304.451,-113.521,981.551,-1496.25,-3255.0,3360.0,-101.84,-12.16,-269.04
518779.8677,298.9,-110.532,975.878,1233.75,-2388.75,4165.0,-88.16,-18.24,-281.2
518779.9177,307.562,-95.648,978.013,420.0,-3771.25,2388.75,-86.64,-3.04,-276.64
518779.9677,303.231,-80.337,979.05,-1286.25,-2555.0,-595.0,-94.24,-12.16,-273.6
518780.0177,287.92,-90.707,979.477,-4348.75,-4462.5,-691.25,-101.84,-12.16,-278.16
518780.0677,290.604,-91.195,980.88,-2896.25,-5390.0,1076.25,-106.4,-21.28,-266.0
518780.1177,297.009,-99.491,980.819,-3596.25,-6002.5,2555.0,-114.0,-9.12,-264.48
518780.1677,310.063,-121.878,977.098,-778.75,-6413.75,4095.0,-114.0,-9.12,-250.8
518780.2177,305.244,-89.975,969.046,796.25,-5136.25,2555.0,-92.72,-9.12,-267.52
518780.2677,303.658,-96.624,981.734,-1050.0,-4970.0,1522.5,-114.0,-19.76,-264.48
518780.3177,305.305,-96.014,975.39,-1461.25,-4025.0,218.75,-89.68,-7.6,-264.48
518780.3677,298.473,-95.831,978.379,-1776.25,-2808.75,-26.25,-98.8,-15.2,-273.6
518780.4177,285.846,-101.321,984.357,-2782.5,-7936.25,1741.25,-98.8,-12.16,-261.44
518780.4677,321.897,-107.604,972.462,-1461.25,-5635.0,2266.25,-101.84,0.0,-253.84
518780.5177,301.157,-104.493,975.329,-1583.75,-5958.75,1583.75,-94.24,-16.72,-259.92
518780.5677,308.233,-105.103,977.281,-796.25,-6265.0,-113.75,-112.48,-7.6,-269.04
518780.6177,310.429,-102.907,972.401,-350.0,-6352.5,288.75,-103.36,-27.36,-255.36
518780.6677,313.967,-93.574,977.464,-525.0,-6335.0,43.75,-104.88,-16.72,-261.44
518780.7177,311.1,-93.635,973.987,-1723.75,-5197.5,-516.25,-106.4,-21.28,-266.0
518780.7677,313.784,-96.929,976.61,-1706.25,-4996.25,-577.5,-103.36,-9.12,-269.04
518780.8177,310.063,-98.515,973.316,-1540.0,-4532.5,420.0,-107.92,-34.96,-253.84
518780.8677,315.065,-107.848,980.941,-927.5,-4287.5,437.5,-88.16,-15.2,-247.76
518780.9177,307.501,-98.149,976.549,350.0,-4357.5,-218.75,-110.96,-4.56,-269.04
518780.9677,298.046,-93.025,975.756,-2222.5,-5040.0,-866.25,-86.64,-12.16,-266.0
518781.0177,299.937,-96.014,979.599,-1303.75,-6798.75,-2231.25,-112.48,-18.24,-256.88
518781.0677,321.836,-87.779,972.462,-2712.5,-4480.0,-1916.25,-94.24,-18.24,-247.76
518781.1177,312.93,-97.234,971.303,-3106.25,-4926.25,-61.25,-92.72,-22.8,-256.88
518781.1677,315.431,-103.883,975.146,-2143.75,-5232.5,665.0,-100.32,-7.6,-247.76
518781.2178,314.333,-96.563,974.048,-1618.75,-4165.0,770.0,-103.36,0.0,-262.96
518781.2677,304.451,-105.713,977.708,-1155.0,-5075.0,857.5,-83.6,-16.72,-261.44
518781.3177,315.126,-85.095,980.575,857.5,-6256.25,595.0,-100.32,-22.8,-255.36
518781.3677,321.958,-83.936,973.743,-1032.5,-6632.5,385.0,-100.32,-13.68,-258.4
518781.4177,319.152,-85.644,972.95,-1085.0,-7271.25,428.75,-97.28,-13.68,-252.32
518781.4677,309.27,-73.688,973.926,-2843.75,-7936.25,3412.5,-103.36,-18.24,-255.36
518781.5177,330.559,-106.079,972.462,-4690.0,-7726.25,2791.25,-95.76,0.0,-262.96
518781.5677,340.441,-116.51,973.499,-358.75,-5486.25,-892.5,-92.72,-15.2,-269.04
518781.6177,317.749,-90.829,975.695,1452.5,-6247.5,-612.5,-101.84,-4.56,-250.8
518781.6677,312.076,-74.786,973.133,3088.75,-8557.5,2730.0,-100.32,-30.4,-267.52
518781.7177,338.062,-71.126,958.798,2222.5,-6536.25,7490.0,-112.48,-13.68,-249.28
518781.7677,324.947,-69.601,965.935,-1688.75,-4812.5,3893.75,-117.04,-27.36,-255.36
518781.8177,316.895,-106.018,976.915,-5031.25,-3255.0,2126.25,-101.84,-22.8,-253.84
518781.8677,315.98,-91.195,986.065,-2843.75,-5267.5,-5337.5,-115.52,-12.16,-256.88
518781.9177,335.805,-90.951,983.015,-4506.25,-10386.25,-5250.0,-92.72,9.12,-252.32
518781.9677,372.588,-95.892,953.491,551.25,-13020.0,5556.25,-107.92,-22.8,-258.4
518782.0177,391.071,-96.563,937.509,-1111.25,-7043.75,6431.25,-110.96,12.16,-246.24
518782.0677,351.36,-108.885,953.125,-2633.75,-831.25,3456.25,-118.56,-15.2,-261.44
518782.1177,308.965,-120.536,968.131,656.25,-3255.0,533.75,-106.4,-6.08,-243.2
518782.1677,315.858,-120.841,980.941,2905.0,-2178.75,105.0,-110.96,-27.36,-262.96
518782.2177,311.954,-79.788,970.266,4147.5,-4217.5,-988.75,-117.04,-7.6,-258.4
518782.2677,327.082,-69.967,987.102,-1995.0,-6212.5,-2730.0,-132.24,-21.28,-267.52
518782.3177,314.882,-87.413,989.359,-3517.5,-6422.5,-4681.25,-95.76,-10.64,-247.76
518782.3677,327.631,-94.367,980.392,-1671.25,-12258.75,-8540.0,-117.04,-21.28,-250.8
518782.4177,364.17,-73.139,961.177,1190.0,-13746.25,-2878.75,-97.28,-19.76,-264.48
518782.4677,386.313,-49.166,953.613,-1041.25,-10736.25,-2668.75,-100.32,-27.36,-258.4
518782.5177,395.463,-62.281,936.899,-4208.75,-9887.5,-2773.75,-110.96,-30.4,-253.84
518782.5677,408.151,-82.167,951.173,-2668.75,-5153.75,2047.5,-136.8,-19.76,-240.16
518782.6177,383.263,-67.588,947.391,-980.0,175.0,4558.75,-109.44,-13.68,-258.4
518782.6677,340.624,-64.05,962.885,-5127.5,-4033.75,-35.0,-117.04,-25.84,-247.76
518782.7177,365.085,-98.027,968.314,-5162.5,-6317.5,3036.25,-110.96,-19.76,-244.72
518782.7677,379.603,-105.469,964.959,2808.75,-6501.25,6702.5,-115.52,-18.24,-262.96
518782.8177,384.361,-74.908,949.892,3027.5,-4873.75,5897.5,-115.52,-10.64,-243.2
518782.8677,374.54,-63.074,952.21,-3220.0,-3587.5,-1820.0,-132.24,-21.28,-252.32
518782.9177,367.769,-79.3,955.138,-6370.0,-2616.25,-6807.5,-104.88,-24.32,-237.12
518782.9677,367.647,-91.439,960.079,-3893.75,-297.5,-6763.75,-118.56,-34.96,-238.64
518783.0177,337.269,-77.531,969.778,-2038.75,-367.5,-1986.25,-110.96,-24.32,-241.68
518783.0677,339.038,-83.631,980.575,78.75,-1785.0,1172.5,-117.04,-10.64,-256.88
518783.1177,336.781,-67.832,979.233,1610.0,-2170.0,875.0,-109.44,-30.4,-249.28
518783.1677,325.496,-55.693,970.51,-2100.0,-4340.0,-271.25,-120.08,-31.92,-250.8
518783.2177,335.012,-63.562,967.399,-4733.75,-5871.25,-997.5,-110.96,-24.32,-250.8
518783.2677,348.066,-92.232,967.46,-4585.0,-5880.0,717.5,-112.48,-10.64,-244.72
518783.3177,337.94,-98.637,971.242,-1881.25,-5652.5,2021.25,-117.04,-34.96,-258.4
518783.3677,338.55,-101.382,968.314,-1085.0,-7463.75,1723.75,-107.92,-19.76,-259.92
518783.4177,360.51,-86.193,958.554,-1207.5,-8006.25,70.0,-106.4,-22.8,-255.36
518783.4678,363.56,-91.5,960.872,-1312.5,-7201.25,-595.0,-103.36,-19.76,-249.28
518783.5177,372.71,-73.627,956.297,-1286.25,-6326.25,-1286.25,-112.48,-21.28,-247.76
518783.5677,374.784,-74.298,957.761,-3342.5,-5442.5,-822.5,-109.44,-27.36,-228.0
518783.6177,368.684,-84.302,960.811,-3412.5,-4366.25,665.0,-118.56,-22.8,-250.8
518783.6677,362.096,-88.023,959.103,-2765.0,-5381.25,1461.25,-97.28,-12.16,-246.24
518783.7177,365.451,-87.962,954.589,-1487.5,-4830.0,8.75,-101.84,-9.12,-231.04
518783.7677,377.468,-89.548,975.207,-3780.0,-5661.25,3692.5,-100.32,-10.64,-264.48
518783.8177,381.311,-98.454,956.602,3080.0,-7411.25,2520.0,-114.0,-34.96,-252.32
518783.8677,386.069,-63.44,943.426,2861.25,-5626.25,743.75,-132.24,-16.72,-249.28
518783.9177,357.704,-56.303,939.156,-3710.0,-4865.0,-2310.0,-106.4,-19.76,-243.2
518783.9677,348.371,-72.773,959.957,-7411.25,-1653.75,-3683.75,-110.96,-18.24,-255.36
518784.0177,330.315,-107.787,976.549,-9546.25,-323.75,-490.0,-115.52,-7.6,-246.24
518784.0677,280.844,-107.665,986.675,-3675.0,-2695.0,-3928.75,-118.56,-24.32,-241.68
518784.1177,328.18,-121.024,988.383,-4025.0,-11016.25,-2905.0,-123.12,-10.64,-244.72
518784.1677,399.672,-89.792,957.883,831.25,-8058.75,-5941.25,-118.56,-13.68,-234.08
518784.2177,421.205,-51.484,929.762,-1076.25,-9843.75,-1365.0,-133.76,-16.72,-249.28
518784.2677,433.893,-80.276,933.422,218.75,-7857.5,2817.5,-109.44,-15.2,-244.72
518784.3177,422.486,-80.703,930.25,1907.5,-8.75,5363.75,-121.6,-12.16,-253.84
518784.3677,373.564,-77.592,945.561,1347.5,1688.75,7245.0,-118.56,-13.68,-255.36
518784.4177,352.58,-96.502,961.116,-2502.5,4103.75,5591.25,-123.12,-15.2,-235.6
518784.4677,311.222,-96.746,981.124,-4628.75,455.0,-3517.5,-126.16,-21.28,-249.28
518784.5177,338.55,-91.439,966.545,-8137.5,-4462.5,-2563.75,-121.6,-12.16,-255.36
518784.5677,370.575,-143.96,976.305,-4821.25,-4760.0,-717.5,-106.4,-16.72,-244.72
518784.6177,354.471,-106.323,945.622,1575.0,-5355.0,4453.75,-103.36,-9.12,-264.48
518784.6677,361.913,-108.397,953.003,4900.0,-2695.0,5092.5,-121.6,-21.28,-253.84
518784.7177,333.975,-75.64,950.441,4646.25,-2213.75,8128.75,-123.12,-15.2,-262.96
518784.7677,352.092,-98.515,974.231,5871.25,691.25,8767.5,-112.48,-4.56,-253.84
518784.8177,302.926,-95.343,980.941,6282.5,586.25,7525.0,-120.08,-28.88,-256.88
518784.8677,288.164,-71.37,985.272,3246.25,-4935.0,3150.0,-114.0,-28.88,-264.48
518784.9177,332.816,-58.865,981.734,-210.0,-7463.75,1837.5,-115.52,-25.84,-264.48
518784.9677,331.047,-71.126,965.142,-4637.5,-4725.0,-6772.5,-115.52,-15.2,-240.16
518785.0177,333.06,-80.764,969.656,-4830.0,-7507.5,-9817.5,-106.4,-13.68,-258.4
518785.0677,360.205,-60.939,970.632,-2677.5,-4891.25,-5092.5,-107.92,-21.28,-250.8
518785.1177,333.975,-84.668,961.97,-2756.25,-7910.0,-2861.25,-92.72,-30.4,-259.92
518785.1677,361.669,-84.79,966.057,-1303.75,-8776.25,-822.5,-97.28,-31.92,-259.92
518785.2177,377.224,-71.797,960.811,2948.75,-3080.0,288.75,-115.52,-12.16,-247.76
518785.2677,353.983,-17.873,957.151,-892.5,-2922.5,-4952.5,-114.0,-25.84,-238.64
518785.3177,340.746,-39.345,965.996,-6273.75,-3867.5,-5591.25,-110.96,-27.36,-252.32
518785.3677,353.434,-76.982,969.534,-2213.75,-5363.75,393.75,-115.52,-34.96,-255.36
518785.4177,353.8,-72.651,959.53,533.75,-4873.75,3902.5,-121.6,-24.32,-264.48
518785.4677,357.155,-53.924,957.761,-805.0,-3088.75,5215.0,-109.44,-27.36,-244.72
518785.5177,339.465,-72.773,975.451,-1968.75,-1898.75,4585.0,-109.44,-38.0,-252.32
518785.5677,326.045,-73.444,969.839,-1977.5,-2100.0,2546.25,-101.84,-19.76,-258.4
518785.6177,332.023,-62.83,974.292,-3097.5,-3298.75,-787.5,-120.08,-25.84,-266.0
518785.6677,332.755,-59.963,971.852,-4156.25,-3745.0,-945.0,-97.28,-16.72,-256.88
518785.7178,337.391,-77.47,973.133,-3132.5,-5013.75,1951.25,-110.96,-15.2,-262.96
518785.7677,335.988,-77.043,965.447,-472.5,-4751.25,3823.75,-121.6,-16.72,-262.96
518785.8177,342.149,-66.368,967.704,-1513.75,-4585.0,2476.25,-114.0,-18.24,-255.36
518785.8677,336.293,-79.483,973.133,-3421.25,-4060.0,-411.25,-109.44,-24.32,-256.88
518785.9177,332.816,-84.119,970.876,-2826.25,-4593.75,-700.0,-118.56,-22.8,-259.92
518785.9677,333.121,-83.57,969.778,-1916.25,-5022.5,-148.75,-106.4,-22.8,-258.4
518786.0177,334.28,-77.47,970.022,-2266.25,-4917.5,805.0,-120.08,-30.4,-252.32
518786.0677,331.047,-82.35,966.85,-2738.75,-6265.0,542.5,-120.08,-9.12,-266.0
518786.1177,352.946,-88.267,966.728,-962.5,-5215.0,-796.25,-115.52,-27.36,-267.52
518786.1677,333.304,-72.285,966.545,-2012.5,-4768.75,-1023.75,-112.48,-22.8,-258.4
518786.2177,336.476,-73.749,966.179,-2686.25,-5083.75,-647.5,-120.08,-22.8,-266.0
518786.2677,343.125,-82.472,969.595,-2380.0,-5372.5,866.25,-97.28,-6.08,-258.4
518786.3177,336.537,-78.385,967.155,-2003.75,-4768.75,901.25,-109.44,-34.96,-267.52
518786.3677,345.077,-85.339,966.057,-2511.25,-6265.0,1102.5,-104.88,-16.72,-244.72
518786.4177,346.053,-87.169,964.41,-1785.0,-4655.0,1925.0,-121.6,-28.88,-262.96
518786.4677,345.138,-90.768,966.423,-551.25,-5153.75,2397.5,-110.96,-24.32,-250.8
518786.5177,348.554,-83.631,965.63,-131.25,-5433.75,630.0,-115.52,-18.24,-261.44
518786.5677,347.944,-77.592,963.922,-962.5,-4515.0,-1163.75,-114.0,-19.76,-256.88
518786.6177,344.04,-73.566,965.63,-1977.5,-5066.25,-1680.0,-120.08,-13.68,-255.36
518786.6677,350.323,-78.141,964.593,-1986.25,-5022.5,-498.75,-110.96,-21.28,-262.96
518786.7177,346.297,-77.226,968.375,-1610.0,-4086.25,883.75,-129.2,-13.68,-243.2
518786.7677,345.626,-75.945,964.837,-2126.25,-4795.0,2196.25,-103.36,-16.72,-247.76
518786.8177,351.421,-85.217,959.652,-1986.25,-5468.75,2021.25,-117.04,-27.36,-261.44
518786.8677,367.159,-89.304,965.386,-1435.0,-4567.5,945.0,-110.96,-18.24,-255.36
518786.9177,344.162,-71.553,964.959,-1513.75,-2590.0,367.5,-114.0,-19.76,-256.88
518786.9677,339.831,-75.579,964.227,-2502.5,-3780.0,560.0,-106.4,-13.68,-259.92
518787.0177,343.491,-86.925,964.654,-2143.75,-3648.75,1286.25,-121.6,-13.68,-255.36
518787.0677,335.622,-80.947,969.046,-1750.0,-3228.75,1750.0,-106.4,-16.72,-258.4
518787.1177,333.853,-82.838,968.558,-2677.5,-4795.0,1645.0,-118.56,-7.6,-256.88
518787.1677,347.456,-89.426,963.495,-2126.25,-4103.75,1487.5,-126.16,-15.2,-250.8
518787.2177,342.088,-93.757,966.728,-1837.5,-3648.75,2065.0,-110.96,-13.68,-261.44
518787.2677,345.016,-92.049,965.447,-1277.5,-3981.25,586.25,-118.56,-10.64,-247.76
518787.3177,340.075,-88.206,969.778,-1111.25,-3395.0,-665.0,-120.08,-12.16,-258.4
518787.3677,336.11,-81.801,965.752,-1408.75,-3605.0,-1338.75,-110.96,-16.72,-256.88
518787.4177,337.513,-85.766,970.022,-2021.25,-3876.25,-726.25,-106.4,-12.16,-243.2
518787.4677,336.598,-87.413,972.34,-1032.5,-4217.5,831.25,-107.92,-28.88,-247.76
518787.5177,334.585,-83.509,969.9,-595.0,-4016.25,910.0,-121.6,-9.12,-244.72
518787.5677,338.245,-81.191,967.521,-2616.25,-4707.5,498.75,-118.56,-27.36,-256.88
518787.6177,340.38,-92.598,966.057,-2091.25,-4742.5,980.0,-103.36,-22.8,-246.24
518787.6677,342.881,-83.448,969.961,350.0,-2555.0,157.5,-107.92,-13.68,-273.6
518787.7177,326.594,-76.86,968.192,-1995.0,-3465.0,-472.5,-97.28,-31.92,-258.4
518787.7677,326.533,-82.533,972.035,-2073.75,-3911.25,-288.75,-114.0,-19.76,-264.48
518787.8177,331.474,-82.777,976.061,-1452.5,-3552.5,1461.25,-101.84,-27.36,-255.36
518787.8677,321.104,-81.801,971.242,-1513.75,-4252.5,1916.25,-107.92,-15.2,-258.4
518787.9177,331.108,-88.206,974.109,-1531.25,-5766.25,1356.25,-101.84,-24.32,-267.52
518787.9678,328.119,-84.058,972.34,-1741.25,-5267.5,1233.75,-109.44,-22.8,-258.4
518788.0177,330.62,-88.267,971.669,-1706.25,-6125.0,157.5,-120.08,-25.84,-267.52
518788.0677,337.025,-86.742,967.033,-1155.0,-6282.5,-551.25,-97.28,-15.2,-249.28
518788.1177,343.491,-76.921,965.935,-1391.25,-5626.25,-735.0,-106.4,-18.24,-249.28
518788.1677,337.269,-76.86,968.375,-2380.0,-5232.5,-280.0,-106.4,-30.4,-246.24
518788.2177,342.393,-83.082,962.641,-1408.75,-4567.5,1601.25,-112.48,-22.8,-267.52
518788.2677,341.417,-81.862,967.033,-1452.5,-4235.0,1522.5,-109.44,-31.92,-258.4
518788.3177,333.609,-79.117,967.338,-2003.75,-4191.25,1216.25,-103.36,-18.24,-252.32
518788.3677,339.831,-90.89,965.691,-2625.0,-5057.5,1006.25,-101.84,-13.68,-253.84
518788.4177,351.421,-98.698,968.863,-1391.25,-4672.5,988.75,-89.68,-13.68,-267.52
518788.4677,334.219,-77.165,965.813,-1627.5,-2791.25,306.25,-109.44,-24.32,-256.88
518788.5177,328.241,-79.483,971.181,-2283.75,-3683.75,-402.5,-101.84,-19.76,-264.48
518788.5677,333.365,-86.315,970.632,-2336.25,-3123.75,1391.25,-101.84,-19.76,-258.4
518788.6177,327.631,-87.413,973.743,-1575.0,-3158.75,2773.75,-104.88,-13.68,-249.28
518788.6677,325.862,-89.487,973.194,-2231.25,-4103.75,3150.0,-107.92,-21.28,-244.72
518788.7177,329.278,-93.208,973.804,-1601.25,-3998.75,2091.25,-101.84,-33.44,-269.04
518788.7677,323.91,-92.598,972.706,-2073.75,-4541.25,1163.75,-101.84,-19.76,-255.36
518788.8177,331.779,-98.027,970.388,-1181.25,-4882.5,-61.25,-103.36,-7.6,-252.32
518788.8677,330.193,-89.121,968.497,-1050.0,-4208.75,-1198.75,-106.4,-13.68,-255.36
518788.9177,330.376,-82.472,969.595,-1443.75,-3981.25,-1093.75,-104.88,-22.8,-258.4
518788.9677,323.178,-85.339,971.303,-2030.0,-4173.75,411.25,-98.8,-9.12,-267.52
518789.0177,325.069,-89.914,973.682,-1487.5,-4733.75,2030.0,-114.0,-9.12,-269.04
518789.0677,324.276,-92.049,974.597,-1093.75,-5075.0,1837.5,-104.88,-18.24,-267.52
518789.1177,328.058,-86.559,970.266,-2143.75,-5547.5,805.0,-101.84,-15.2,-250.8
518789.1677,331.657,-96.807,970.449,-2380.0,-5538.75,498.75,-101.84,-16.72,-256.88
518789.2177,342.454,-98.698,971.608,673.75,-4182.5,-87.5,-110.96,-24.32,-261.44
518789.2677,327.021,-75.091,968.863,-2012.5,-4252.5,-1487.5,-120.08,-7.6,-261.44
518789.3177,328.119,-84.729,969.534,-2642.5,-4567.5,-1032.5,-112.48,-15.2,-266.0
518789.3677,328.668,-88.755,976.244,-1522.5,-4488.75,2178.75,-98.8,-7.6,-267.52
518789.4177,323.239,-84.851,974.78,-971.25,-4690.0,2712.5,-112.48,-13.68,-284.24
518789.4677,331.169,-93.452,973.621,-1951.25,-5748.75,1732.5,-92.72,-24.32,-264.48
518789.5177,335.683,-89.914,970.266,-1855.0,-5582.5,630.0,-120.08,-19.76,-259.92
518789.5677,334.341,-97.783,967.948,-1487.5,-5363.75,323.75,-109.44,-21.28,-264.48
518789.6177,341.112,-90.829,964.288,-918.75,-5267.5,-822.5,-115.52,-15.2,-253.84
518789.6677,336.415,-82.045,966.362,-1303.75,-3963.75,-1391.25,-94.24,-16.72,-247.76
518789.7177,338.55,-79.117,967.643,-2108.75,-3955.0,-1041.25,-104.88,-7.6,-261.44
518789.7677,332.511,-92.293,970.876,-1548.75,-3745.0,1172.5,-104.88,-9.12,-259.92
518789.8177,331.901,-86.864,969.168,-1128.75,-4042.5,2415.0,-107.92,-13.68,-253.84
518789.8677,332.938,-88.511,972.462,-1128.75,-3902.5,1828.75,-107.92,-22.8,-258.4
518789.9177,332.45,-85.888,970.327,-2467.5,-4418.75,1041.25,-106.4,-19.76,-270.56
518789.9677,332.633,-99.674,968.375,-2152.5,-4672.5,533.75,-118.56,-19.76,-255.36
518790.0177,337.147,-86.62,968.985,113.75,-2275.0,-612.5,-114.0,-15.2,-262.96
518790.0677,318.237,-72.651,969.595,-1881.25,-2695.0,-761.25,-107.92,-30.4,-255.36
518790.1177,319.274,-87.352,973.011,-2432.5,-3631.25,402.5,-100.32,-10.64,-258.4
518790.1677,321.714,-90.707,978.501,-962.5,-4060.0,3228.75,-109.44,-19.76,-255.36
518790.2178,318.42,-83.387,976.793,-1592.5,-4620.0,2248.75,-106.4,-12.16,-253.84
518790.2677,326.35,-94.611,972.218,-1925.0,-5223.75,813.75,-110.96,-39.52,-261.44
518790.3177,325.374,-90.707,970.449,-2152.5,-5346.25,595.0,-103.36,-13.68,-255.36
518790.3677,328.973,-96.685,973.438,-1575.0,-5818.75,350.0,-101.84,-10.64,-267.52
518790.4177,333.426,-90.585,969.717,-1076.25,-5407.5,-227.5,-97.28,-18.24,-249.28
518790.4677,330.132,-84.912,967.643,-1312.5,-4497.5,-1050.0,-115.52,-21.28,-259.92
518790.5177,326.533,-84.241,970.815,-2371.25,-4707.5,-166.25,-97.28,-19.76,-252.32
518790.5677,328.119,-93.635,972.706,-1400.0,-4523.75,1715.0,-103.36,-36.48,-252.32
518790.6177,326.106,-91.073,971.364,-1426.25,-4725.0,2397.5,-104.88,-7.6,-272.08
518790.6677,325.74,-90.158,970.327,-1295.0,-4768.75,1155.0,-112.48,-22.8,-249.28
518790.7177,328.851,-87.962,970.693,-2502.5,-5215.0,358.75,-97.28,-19.76,-256.88
518790.7677,335.5,-102.175,970.327,-1846.25,-5223.75,577.5,-127.68,-9.12,-252.32
518790.8177,338.062,-85.339,969.412,-122.5,-3298.75,-315.0,-95.76,-12.16,-261.44
518790.8677,322.629,-79.544,968.802,-2213.75,-3850.0,-630.0,-95.76,-19.76,-259.92
518790.9177,324.337,-90.463,971.486,-2161.25,-4156.25,892.5,-94.24,-18.24,-252.32
518790.9677,325.313,-93.696,976.305,-1592.5,-4182.5,2423.75,-100.32,-24.32,-270.56
518791.0177,317.078,-88.267,974.048,-1898.75,-4768.75,2362.5,-103.36,-13.68,-243.2
518791.0677,330.437,-96.929,970.754,-1513.75,-5215.0,883.75,-104.88,-19.76,-258.4
518791.1177,327.387,-92.354,972.645,-1977.5,-5232.5,630.0,-100.32,-7.6,-258.4
518791.1677,326.289,-99.125,969.29,-1102.5,-5118.75,-332.5,-106.4,-13.68,-244.72
518791.2177,334.341,-87.718,967.216,-1172.5,-4497.5,-1190.0,-106.4,-18.24,-253.84
518791.2677,329.644,-83.021,971.852,-1592.5,-4313.75,-1155.0,-95.76,-24.32,-266.0
518791.3177,326.106,-89.121,970.937,-1785.0,-4261.25,735.0,-88.16,-22.8,-267.52
518791.3677,329.583,-89.243,969.656,-1645.0,-4427.5,1793.75,-100.32,-16.72,-243.2
518791.4177,325.191,-93.025,973.011,-1653.75,-3762.5,1968.75,-117.04,-7.6,-259.92
518791.4677,320.494,-88.511,972.523,-1478.75,-5521.25,630.0,-109.44,-12.16,-253.84
518791.5177,320.372,-86.681,973.743,-2756.25,-6378.75,70.0,-100.32,-9.12,-258.4
518791.5677,331.352,-107.421,968.68,-2126.25,-7017.5,437.5,-106.4,-12.16,-262.96
518791.6177,343.125,-99.186,970.205,455.0,-5635.0,-306.25,-110.96,-4.56,-250.8
518791.6677,323.056,-76.616,969.046,-2800.0,-5048.75,-1478.75,-100.32,-10.64,-252.32
518791.7177,327.875,-94.306,969.961,-2826.25,-4733.75,96.25,-109.44,1.52,-258.4
518791.7677,322.812,-99.552,975.451,-1461.25,-5381.25,2607.5,-101.84,-6.08,-249.28
518791.8177,327.387,-96.685,972.706,-1898.75,-6317.5,2450.0,-117.04,-16.72,-246.24
518791.8677,335.866,-102.114,970.998,-1312.5,-6868.75,271.25,-115.52,-6.08,-252.32
518791.9177,336.171,-97.234,966.179,-1890.0,-6431.25,-752.5,-98.8,-16.72,-238.64
518791.9677,341.478,-100.284,965.142,-1373.75,-6973.75,-1172.5,-112.48,-13.68,-259.92
518792.0177,344.772,-95.343,967.948,-656.25,-6807.5,-997.5,-103.36,-18.24,-252.32
518792.0677,349.957,-85.705,965.691,-1277.5,-5643.75,-1382.5,-98.8,-24.32,-255.36
518792.1177,345.016,-89.609,962.824,-1610.0,-4908.75,-595.0,-104.88,-19.76,-259.92
518792.1677,342.759,-90.829,968.741,-1181.25,-4585.0,-26.25,-98.8,-24.32,-252.32
518792.2177,343.491,-88.816,967.399,-1741.25,-4690.0,761.25,-112.48,-12.16,-252.32
518792.2677,343.613,-92.049,969.9,-1155.0,-4987.5,1452.5,-118.56,-36.48,-261.44
518792.3177,345.077,-86.376,962.702,-2187.5,-5530.0,1023.75,-100.32,-22.8,-250.8
518792.3677,355.63,-100.223,969.351,-1855.0,-5993.75,210.0,-101.84,-9.12,-258.4
518792.4177,354.959,-92.781,963.678,-376.25,-3333.75,-411.25,-110.96,-18.24,-262.96
518792.4678,335.988,-81.191,967.155,-1715.0,-4130.0,-350.0,-114.0,-15.2,-252.32
518792.5177,343.918,-84.912,966.789,-2292.5,-3928.75,306.25,-114.0,-12.16,-258.4
518792.5677,343.064,-91.805,970.876,-1610.0,-4278.75,1881.25,-104.88,-15.2,-253.84
518792.6177,337.635,-88.999,967.338,-1933.75,-5267.5,2073.75,-104.88,-19.76,-262.96
518792.6677,349.53,-96.746,966.057,-1881.25,-5118.75,1006.25,-123.12,-16.72,-243.2
518792.7177,339.038,-94.001,969.717,-2152.5,-4716.25,770.0,-117.04,-18.24,-249.28
518792.7677,346.724,-99.796,967.216,-1286.25,-5801.25,-87.5,-97.28,-34.96,-252.32
518792.8177,350.445,-90.036,962.153,-1137.5,-5153.75,-455.0,-115.52,-18.24,-255.36
518792.8677,348.981,-82.899,963.556,-1802.5,-4392.5,-673.75,-106.4,-3.04,-243.2
518792.9177,346.724,-87.352,965.874,-2222.5,-4138.75,-148.75,-117.04,-16.72,-269.04
518792.9677,343.064,-91.317,967.704,-1540.0,-4313.75,1575.0,-109.44,-16.72,-259.92
518793.0177,338.123,-96.441,967.277,-1715.0,-4725.0,2205.0,-109.44,-30.4,-255.36
518793.0677,341.478,-88.755,966.972,-1732.5,-4471.25,1785.0,-103.36,-16.72,-261.44
518793.1177,334.524,-97.356,965.142,-3360.0,-5451.25,1443.75,-114.0,-10.64,-246.24
518793.1677,352.153,-108.458,967.277,-2257.5,-5783.75,1452.5,-101.84,-12.16,-256.88
518793.2177,343.918,-94.123,966.301,-498.75,-3360.0,665.0,-107.92,-13.68,-259.92
518793.2677,340.014,-86.681,965.569,-2607.5,-4926.25,-393.75,-100.32,-9.12,-249.28
518793.3177,341.966,-96.075,967.277,-2686.25,-4698.75,-122.5,-120.08,-16.72,-249.28
518793.3677,339.404,-98.454,968.558,-1741.25,-5250.0,2336.25,-100.32,-12.16,-256.88
518793.4177,345.26,-100.345,966.789,-1715.0,-5801.25,2406.25,-107.92,-7.6,-258.4
518793.4677,350.323,-99.979,964.532,-1715.0,-5320.0,1496.25,-112.48,-16.72,-253.84
518793.5177,342.881,-103.395,965.447,-2091.25,-5346.25,533.75,-114.0,-9.12,-258.4
518793.5677,352.885,-108.458,961.238,-1671.25,-5836.25,-367.5,-127.68,-18.24,-258.4
518793.6177,355.386,-98.21,961.848,-726.25,-4418.75,-507.5,-109.44,-6.08,-262.96
518793.6677,348.31,-89.182,962.214,-1627.5,-4200.0,-455.0,-109.44,-28.88,-243.2
518793.7177,350.445,-92.11,964.959,-2178.75,-3526.25,367.5,-107.92,3.04,-249.28
518793.7677,341.234,-99.613,968.192,-1680.0,-4270.0,1846.25,-121.6,-4.56,-249.28
518793.8177,343.491,-98.21,968.863,-1688.75,-4585.0,1793.75,-118.56,-6.08,-246.24
518793.8677,338.855,-97.356,963.983,-1391.25,-4611.25,1041.25,-114.0,-9.12,-266.0
518793.9177,346.175,-101.077,964.288,-2616.25,-4690.0,542.5,-109.44,-15.2,-258.4
518793.9677,348.737,-109.068,969.351,-1925.0,-5188.75,971.25,-115.52,-21.28,-256.88
518794.0177,340.624,-92.72,966.423,-70.0,-3526.25,192.5,-107.92,-12.16,-247.76
518794.0677,342.271,-93.513,964.898,-2301.25,-4681.25,-306.25,-106.4,-22.8,-249.28
518794.1177,339.099,-97.722,968.253,-2327.5,-4418.75,122.5,-110.96,-16.72,-240.16
518794.1677,340.929,-101.016,967.765,-1251.25,-4576.25,2213.75,-117.04,-16.72,-249.28
518794.2177,343.735,-96.319,964.715,-1802.5,-4926.25,2257.5,-110.96,-13.68,-249.28
518794.2677,346.663,-104.981,965.752,-1557.5,-4795.0,1146.25,-107.92,-9.12,-244.72
518794.3177,345.687,-100.772,962.702,-1846.25,-4655.0,1146.25,-109.44,-16.72,-261.44
518794.3677,350.262,-106.994,965.02,-1391.25,-4086.25,280.0,-107.92,-19.76,-238.64
518794.4177,344.955,-98.149,965.996,-1015.0,-4550.0,-315.0,-112.48,-9.12,-261.44
518794.4677,340.258,-92.72,968.985,-1461.25,-4891.25,-280.0,-92.72,-24.32,-243.2
518794.5177,344.528,-99.796,962.519,-2231.25,-5302.5,481.25,-91.2,-28.88,-253.84
518794.5677,348.859,-100.345,965.142,-1417.5,-4952.5,1478.75,-107.92,-18.24,-256.88
518794.6177,344.467,-102.297,966.301,-1601.25,-4243.75,1312.5,-115.52,-7.6,-250.8
518794.6677,345.809,-97.173,964.776,-1470.0,-4550.0,761.25,-117.04,-18.24,-244.72
518794.7178,347.822,-102.724,962.397,-2021.25,-4681.25,577.5,-103.36,-9.12,-246.24
518794.7677,351.177,-111.203,964.654,-1146.25,-4672.5,533.75,-100.32,-12.16,-252.32
518794.8177,346.48,-86.315,963.8,-1032.5,-3342.5,-883.75,-100.32,-13.68,-240.16
518794.8677,339.465,-90.219,964.654,-2546.25,-3325.0,-1575.0,-110.96,-27.36,-261.44
518794.9177,337.208,-97.966,966.545,-2100.0,-3675.0,1032.5,-103.36,-25.84,-247.76
518794.9677,341.783,-96.441,966.423,-1093.75,-2870.0,3080.0,-115.52,-10.64,-246.24
518795.0177,332.694,-98.82,968.314,-2030.0,-3377.5,2660.0,-97.28,-15.2,-253.84
518795.0677,343.247,-104.798,968.497,-1417.5,-4086.25,1461.25,-109.44,-7.6,-250.8
518795.1177,333.731,-102.785,968.375,-1793.75,-3753.75,1137.5,-118.56,-16.72,-240.16
518795.1677,336.842,-105.286,966.484,-1312.5,-5363.75,437.5,-97.28,-12.16,-253.84
518795.2177,340.746,-96.685,968.009,-1102.5,-5328.75,-525.0,-106.4,-9.12,-240.16
518795.2677,342.82,-94.428,964.837,-2003.75,-5110.0,-1058.75,-94.24,-13.68,-231.04
518795.3177,338.306,-97.661,967.948,-2502.5,-5556.25,490.0,-100.32,0.0,-249.28
518795.3677,345.931,-101.87,963.373,-1688.75,-5495.0,1960.0,-83.6,-6.08,-255.36
518795.4177,340.502,-107.36,964.166,-1601.25,-4716.25,2222.5,-109.44,-12.16,-262.96
518795.4677,337.513,-101.748,968.009,-1767.5,-5250.0,1093.75,-104.88,-15.2,-252.32
518795.5177,341.295,-104.615,965.386,-2668.75,-5652.5,-131.25,-115.52,1.52,-267.52
518795.5677,352.458,-118.584,965.996,-988.75,-5022.5,-236.25,-107.92,-18.24,-232.56
518795.6177,340.258,-87.718,960.262,-1408.75,-3438.75,-1137.5,-100.32,-13.68,-252.32
518795.6677,338.672,-97.051,964.166,-2310.0,-3990.0,-1207.5,-106.4,-13.68,-240.16
518795.7177,334.036,-101.565,968.924,-1741.25,-3762.5,1785.0,-115.52,-18.24,-256.88
518795.7677,338.428,-104.31,967.582,-848.75,-3885.0,2423.75,-126.16,-12.16,-247.76
518795.8177,339.16,-106.262,965.996,-2100.0,-4707.5,1365.0,-103.36,-6.08,-247.76
518795.8677,344.955,-106.445,968.314,-1277.5,-4401.25,210.0,-112.48,-24.32,-249.28
518795.9177,343.552,-106.506,961.665,-1557.5,-3998.75,367.5,-97.28,-25.84,-250.8
518795.9677,341.539,-103.395,969.29,-997.5,-4655.0,-157.5,-112.48,-22.8,-246.24
518796.0177,337.452,-101.077,968.131,-778.75,-4095.0,-1137.5,-97.28,-4.56,-262.96
518796.0677,335.744,-94.001,967.765,-1627.5,-3911.25,-1443.75,-114.0,-13.68,-267.52
518796.1177,333.304,-98.271,970.022,-1837.5,-5101.25,61.25,-107.92,0.0,-259.92
518796.1677,339.16,-100.711,967.765,-1365.0,-4970.0,1321.25,-106.4,6.08,-258.4
518796.2177,340.319,-100.406,967.765,-1347.5,-4786.25,1373.75,-115.52,-19.76,-269.04
518796.2677,335.683,-97.661,965.142,-2178.75,-5031.25,796.25,-114.0,-18.24,-256.88
518796.3177,341.478,-102.602,966.24,-2178.75,-5433.75,367.5,-104.88,-18.24,-272.08
518796.3677,352.397,-112.118,969.473,-131.25,-3745.0,183.75,-115.52,-4.56,-249.28
518796.4177,337.452,-90.524,966.911,-656.25,-3613.75,568.75,-120.08,-9.12,-262.96
518796.4677,335.988,-92.72,968.985,-2537.5,-4987.5,-341.25,-104.88,-10.64,-262.96
518796.5177,337.025,-103.822,971.242,-1618.75,-4060.0,1942.5,-112.48,-25.84,-249.28
518796.5677,332.084,-95.77,971.12,-1855.0,-4243.75,2021.25,-106.4,-12.16,-253.84
518796.6177,340.502,-106.811,967.46,-2423.75,-5888.75,1548.75,-115.52,-19.76,-261.44
518796.6677,347.761,-108.946,968.741,-1680.0,-4576.25,1382.5,-106.4,-7.6,-249.28
518796.7177,338.611,-109.129,966.545,-1750.0,-5075.0,796.25,-101.84,-16.72,-249.28
518796.7677,348.249,-104.92,964.227,-542.5,-4987.5,-857.5,-103.36,-10.64,-258.4
518796.8177,346.907,-95.587,965.813,-770.0,-3753.75,-1443.75,-112.48,-16.72,-262.96
518796.8677,336.72,-95.953,966.423,-2196.25,-3666.25,-866.25,-94.24,-4.56,-255.36
518796.9177,331.23,-100.101,971.852,-1417.5,-4366.25,1146.25,-106.4,-22.8,-252.32
518796.9677,335.378,-99.613,969.839,-1688.75,-4882.5,1618.75,-106.4,-9.12,-261.44
518797.0177,337.94,-101.87,969.9,-1461.25,-5477.5,1435.0,-103.36,-15.2,-253.84
518797.0678,338.184,-100.223,965.569,-2012.5,-5398.75,1408.75,-110.96,-22.8,-247.76
518797.1177,348.066,-112.179,960.079,-1846.25,-6133.75,945.0,-106.4,-10.64,-264.48
518797.1677,351.482,-99.125,966.545,-113.75,-2808.75,113.75,-103.36,-12.16,-253.84
518797.2177,326.045,-89.975,967.399,-1916.25,-3088.75,-735.0,-106.4,-6.08,-252.32
518797.2677,330.498,-100.772,970.083,-2712.5,-4725.0,-122.5,-118.56,-7.6,-241.68
518797.3177,335.134,-103.09,968.863,-2126.25,-5066.25,1872.5,-133.76,4.56,-266.0
518797.3677,332.145,-101.26,968.07,-1995.0,-6037.5,2686.25,-121.6,0.0,-252.32
518797.4177,345.016,-114.253,964.532,-1671.25,-6011.25,2415.0,-118.56,-7.6,-256.88
518797.4677,344.589,-107.177,964.715,-1618.75,-5241.25,1391.25,-107.92,-25.84,-241.68
518797.5177,338.916,-111.996,967.277,-2100.0,-5503.75,8.75,-103.36,-9.12,-258.4
518797.5677,349.774,-114.985,962.153,-1146.25,-5390.0,-376.25,-104.88,-22.8,-256.88
518797.6177,348.676,-101.992,964.593,-752.5,-3753.75,-857.5,-123.12,-9.12,-255.36
518797.6677,339.221,-98.027,965.02,-1785.0,-4138.75,-840.0,-112.48,-24.32,-243.2
518797.7177,339.587,-102.663,967.887,-1758.75,-4410.0,253.75,-92.72,7.6,-243.2
518797.7677,343.735,-102.785,966.728,-1330.0,-4646.25,1181.25,-107.92,-4.56,-261.44
518797.8177,341.539,-103.151,964.959,-1146.25,-3736.25,813.75,-110.96,-9.12,-259.92
518797.8677,333.487,-99.857,969.29,-2143.75,-4795.0,1470.0,-100.32,-7.6,-249.28
518797.9177,347.151,-110.837,963.312,-1933.75,-5512.5,848.75,-98.8,-19.76,-249.28
518797.9677,354.105,-113.582,964.532,-612.5,-3946.25,-70.0,-95.76,0.0,-261.44
518798.0177,339.526,-92.964,962.275,-1225.0,-3316.25,-1085.0,-107.92,-13.68,-255.36
518798.0677,335.683,-97.173,963.861,-2590.0,-3850.0,-603.75,-110.96,-18.24,-255.36
518798.1177,339.587,-104.798,968.619,-1697.5,-3867.5,1916.25,-107.92,-10.64,-253.84
518798.1677,325.069,-97.539,973.194,-1706.25,-3036.25,2432.5,-106.4,-22.8,-252.32
518798.2177,323.056,-109.251,973.377,-2441.25,-5302.5,1767.5,-106.4,-6.08,-253.84
518798.2677,337.574,-104.92,969.107,-1286.25,-5757.5,936.25,-94.24,-16.72,-241.68
518798.3177,340.075,-110.044,967.887,-2371.25,-5783.75,-61.25,-117.04,-9.12,-241.68
518798.3677,339.709,-112.667,963.556,-1347.5,-6203.75,166.25,-103.36,-19.76,-252.32
518798.4177,347.761,-99.247,961.543,-1023.75,-5031.25,-315.0,-112.48,-6.08,-246.24
518798.4677,342.82,-97.661,964.227,-2423.75,-4305.0,-323.75,-110.96,-15.2,-250.8
518798.5177,337.391,-106.75,967.277,-2283.75,-4760.0,595.0,-118.56,-13.68,-253.84
518798.5677,344.101,-106.323,966.24,-1575.0,-4900.0,1356.25,-109.44,6.08,-228.0
518798.6177,337.879,-115.229,968.253,-1338.75,-5171.25,840.0,-106.4,0.0,-252.32
518798.6677,340.807,-104.371,966.911,-1382.5,-5381.25,-455.0,-109.44,-24.32,-246.24
518798.7177,344.04,-111.02,961.787,-2572.5,-5372.5,-1251.25,-118.56,-7.6,-255.36
518798.7677,354.959,-118.401,967.46,-516.25,-4900.0,-840.0,-109.44,-21.28,-249.28
518798.8177,348.432,-84.912,958.859,-2038.75,-3150.0,-1207.5,-103.36,-10.64,-238.64
518798.8677,339.16,-103.212,966.667,-2931.25,-3447.5,-1242.5,-107.92,-9.12,-249.28
518798.9177,333.365,-107.726,970.205,-953.75,-4882.5,2607.5,-112.48,-9.12,-258.4
518798.9677,337.147,-96.441,969.9,-1207.5,-4278.75,2047.5,-109.44,-6.08,-258.4
518799.0177,330.132,-105.408,964.227,-2126.25,-5888.75,1557.5,-103.36,-28.88,-247.76
518799.0677,347.761,-104.066,965.874,-840.0,-5705.0,516.25,-94.24,-9.12,-258.4
518799.1177,348.31,-104.493,961.055,-1513.75,-5092.5,-96.25,-101.84,-12.16,-252.32
518799.1677,347.029,-104.066,965.508,-1163.75,-4698.75,-271.25,-118.56,-16.72,-252.32
518799.2177,348.493,-96.746,963.556,-1312.5,-4637.5,-918.75,-101.84,-9.12,-246.24
518799.2677,337.025,-97.234,969.656,-1487.5,-5022.5,-1050.0,-110.96,-9.12,-240.16
518799.3178,335.195,-96.441,969.168,-2712.5,-6903.75,17.5,-115.52,-10.64,-255.36
518799.3677,345.016,-106.384,966.057,-1618.75,-7297.5,1373.75,-95.76,-9.12,-253.84
518799.4177,334.097,-106.811,964.898,-1767.5,-8995.0,1093.75,-112.48,-16.72,-249.28
518799.4677,354.532,-100.101,961.97,-1470.0,-8968.75,1207.5,-112.48,-6.08,-241.68
518799.5177,351.97,-104.31,958.371,-2598.75,-9143.75,1732.5,-103.36,-12.16,-238.64
518799.5677,370.087,-114.68,963.8,-1828.75,-9983.75,1400.0,-114.0,-9.12,-234.08
518799.6177,367.952,-96.807,955.321,-1163.75,-7577.5,175.0,-114.0,-7.6,-252.32
518799.6677,365.939,-100.162,959.042,-2380.0,-6728.75,-323.75,-114.0,0.0,-246.24
518799.7177,364.292,-112.057,958.066,-2091.25,-6588.75,-621.25,-127.68,-13.68,-249.28
518799.7677,397.72,-93.452,954.284,-157.5,-8268.75,1050.0,-110.96,-18.24,-249.28
518799.8177,370.636,-105.286,955.992,-1006.25,-3806.25,122.5,-118.56,-16.72,-247.76
518799.8677,360.937,-106.872,956.846,-647.5,-4130.0,-612.5,-110.96,-4.56,-238.64
518799.9177,362.95,-106.262,960.567,-1041.25,-5853.75,-1312.5,-110.96,-16.72,-246.24
518799.9677,375.821,-105.286,955.504,-866.25,-7052.5,-1837.5,-112.48,-24.32,-243.2
518800.0177,380.945,-88.938,954.223,-1452.5,-7297.5,-2493.75,-118.56,-19.76,-258.4
518800.0677,373.625,-83.448,955.321,-2205.0,-6536.25,-2283.75,-123.12,-15.2,-247.76
518800.1177,363.682,-100.772,959.957,-2353.75,-6842.5,52.5,-117.04,-9.12,-255.36
518800.1677,382.104,-94.733,956.541,-1190.0,-6256.25,726.25,-121.6,-16.72,-232.56
518800.2177,357.643,-99.491,962.214,-2205.0,-5783.75,428.75,-94.24,0.0,-240.16
518800.2677,373.198,-98.576,958.981,-1960.0,-6562.5,-70.0,-110.96,-24.32,-237.12
518800.3177,373.991,-99.003,953.979,-2345.0,-8085.0,-595.0,-106.4,-4.56,-243.2
518800.3677,382.653,-104.798,954.467,-1855.0,-10797.5,-787.5,-130.72,-10.64,-249.28
518800.4177,407.175,-101.687,943.182,-437.5,-10377.5,-2091.25,-114.0,-19.76,-240.16
518800.4677,400.953,-93.452,944.524,-1015.0,-5783.75,-743.75,-135.28,-10.64,-249.28
518800.5177,383.385,-90.097,945.561,-1443.75,-7017.5,113.75,-100.32,-4.56,-249.28
518800.5677,394.914,-98.393,950.319,-1811.25,-7883.75,796.25,-139.84,-6.08,-237.12
518800.6177,399.489,-97.417,949.221,-1006.25,-8076.25,1601.25,-118.56,-24.32,-243.2
518800.6677,418.399,-98.332,939.095,-1268.75,-5731.25,1671.25,-135.28,-18.24,-244.72
518800.7177,396.134,-100.833,942.572,-901.25,-6702.5,2012.5,-124.64,-13.68,-243.2
518800.7677,423.706,-101.199,937.692,-1417.5,-5661.25,2266.25,-136.8,-13.68,-234.08
518800.8177,407.907,-98.698,940.376,-1680.0,-4865.0,901.25,-117.04,-13.68,-247.76
518800.8677,416.874,-100.04,939.278,-1566.25,-1863.75,-568.75,-130.72,-10.64,-235.6
518800.9177,412.909,-95.343,940.986,-1750.0,-2213.75,-122.5,-136.8,-18.24,-240.16
518800.9677,398.574,-99.369,948.245,-2047.5,-2143.75,481.25,-133.76,-22.8,-240.16
518801.0177,407.846,-99.064,942.999,-2572.5,-3788.75,1085.0,-129.2,-24.32,-238.64
518801.0677,407.419,-108.092,946.781,-1470.0,-2555.0,560.0,-107.92,-21.28,-244.72
518801.1177,396.622,-101.016,942.633,-1933.75,-1198.75,446.25,-136.8,-13.68,-232.56
518801.1677,399.001,-106.75,949.465,-1102.5,-1758.75,350.0,-121.6,-12.16,-228.0
518801.2177,395.829,-99.308,951.051,525.0,-175.0,-647.5,-118.56,-18.24,-247.76
518801.2677,377.834,-81.13,953.491,-2371.25,-603.75,-1592.5,-121.6,-13.68,-241.68
518801.3177,372.344,-95.953,957.212,-2003.75,-3587.5,-385.0,-126.16,-21.28,-244.72
518801.3677,388.875,-98.759,954.406,-1592.5,-3298.75,1872.5,-107.92,-10.64,-243.2
518801.4177,370.453,-95.709,950.258,-743.75,-3115.0,2660.0,-121.6,-18.24,-243.2
518801.4677,383.324,-100.894,952.698,-1233.75,-3946.25,2073.75,-126.16,-10.64,-240.16
518801.5177,383.446,-101.077,952.82,-1260.0,-3613.75,271.25,-120.08,-24.32,-240.16
518801.5678,380.213,-103.517,955.87,-700.0,-2808.75,-560.0,-110.96,-33.44,-228.0
518801.6177,376.187,-100.894,958.127,61.25,-3832.5,-1548.75,-126.16,-22.8,-235.6
518801.6677,380.823,-86.071,950.38,-297.5,-3692.5,-2196.25,-114.0,-16.72,-240.16
518801.7177,377.529,-82.838,953.552,-1155.0,-4068.75,-1610.0,-106.4,-6.08,-243.2
518801.7677,377.712,-91.866,956.053,-1268.75,-3736.25,227.5,-124.64,-24.32,-240.16
518801.8177,373.015,-87.047,955.504,-700.0,-3185.0,1741.25,-110.96,-21.28,-241.68
518801.8677,371.734,-89.06,957.578,-682.5,-3552.5,1023.75,-104.88,-18.24,-237.12
518801.9177,375.638,-85.705,958.005,-1811.25,-4541.25,131.25,-95.76,-13.68,-253.84
518801.9677,374.601,-91.5,954.162,-2100.0,-4777.5,192.5,-120.08,-28.88,-238.64
518802.0177,382.958,-91.378,957.395,70.0,-3727.5,-656.25,-120.08,-7.6,-244.72
518802.0677,368.684,-76.616,953.064,-1548.75,-3552.5,-542.5,-117.04,-21.28,-237.12
518802.1177,371.124,-77.287,956.602,-2441.25,-3465.0,-831.25,-115.52,-10.64,-244.72
518802.1677,370.148,-89.609,960.994,-1960.0,-3255.0,1461.25,-112.48,-13.68,-243.2
518802.2177,366.427,-84.546,960.567,-1680.0,-3780.0,2992.5,-133.76,1.52,-240.16
518802.2677,365.451,-89.853,959.774,-1828.75,-4821.25,2773.75,-118.56,-15.2,-241.68
518802.3177,368.806,-91.256,958.859,-2231.25,-4900.0,1645.0,-129.2,-6.08,-241.68
518802.3677,367.464,-98.332,958.066,-2126.25,-4987.5,778.75,-114.0,-6.08,-252.32
518802.4177,371.429,-92.72,955.504,-1671.25,-5162.5,8.75,-112.48,-15.2,-234.08
518802.4677,375.516,-85.705,955.687,-2030.0,-4497.5,-245.0,-133.76,-10.64,-234.08
518802.5177,370.392,-88.999,958.005,-2738.75,-4383.75,78.75,-127.68,-16.72,-253.84
518802.5677,367.769,-100.833,958.737,-1995.0,-5048.75,910.0,-109.44,-9.12,-253.84
518802.6177,368.623,-96.014,957.761,-1723.75,-5197.5,735.0,-120.08,-9.12,-244.72
518802.6677,371.429,-97.661,956.297,-1443.75,-4838.75,595.0,-107.92,-16.72,-249.28
518802.7177,371.734,-94.611,956.419,-1706.25,-5556.25,586.25,-110.96,-12.16,-256.88
518802.7677,377.59,-95.526,956.541,-2187.5,-6352.5,393.75,-127.68,-16.72,-238.64
518802.8177,385.764,-92.659,952.21,-306.25,-4138.75,-770.0,-114.0,4.56,-247.76
518802.8677,371.185,-90.036,953.43,-1855.0,-3561.25,-507.5,-123.12,-6.08,-241.68
518802.9177,371.124,-89.67,955.565,-1960.0,-4305.0,61.25,-112.48,-24.32,-249.28
518802.9677,375.943,-95.221,956.968,-1610.0,-3526.25,1391.25,-132.24,-7.6,-241.68
518803.0177,367.342,-91.622,955.382,-1496.25,-4068.75,1881.25,-127.68,-27.36,-244.72
518803.0677,375.516,-95.953,954.833,-1758.75,-5293.75,1513.75,-115.52,-27.36,-249.28
518803.1177,373.503,-98.576,954.101,-1566.25,-4060.0,761.25,-127.68,-21.28,-261.44
518803.1677,372.222,-99.918,956.724,-945.0,-4480.0,323.75,-117.04,-9.12,-238.64
518803.2177,379.786,-89.182,953.491,-1023.75,-3885.0,-691.25,-114.0,-18.24,-246.24
518803.2677,369.111,-86.376,953.674,-1198.75,-3255.0,-1443.75,-118.56,-25.84,-235.6
518803.3177,373.381,-83.997,955.199,-2170.0,-3561.25,-525.0,-124.64,-16.72,-252.32
518803.3677,370.148,-92.72,957.578,-1540.0,-3115.0,1067.5,-117.04,-15.2,-240.16
518803.4177,371.49,-88.694,957.09,-1566.25,-2677.5,1601.25,-120.08,-31.92,-244.72
518803.4677,359.961,-90.341,961.055,-1636.25,-3543.75,1662.5,-114.0,-15.2,-244.72
518803.5177,364.231,-99.064,958.676,-2406.25,-4007.5,1575.0,-123.12,-9.12,-256.88
518803.5677,367.464,-103.395,961.665,-1776.25,-4873.75,542.5,-115.52,-15.2,-247.76
518803.6177,366.061,-89.548,958.615,-866.25,-2555.0,-420.0,-123.12,-18.24,-244.72
518803.6677,357.216,-85.034,957.761,-1531.25,-3298.75,-70.0,-123.12,-24.32,-246.24
518803.7177,361.364,-91.5,959.103,-2528.75,-2677.5,717.5,-123.12,-12.16,-255.36
518803.7677,351.665,-94.733,967.521,-1391.25,-2012.5,2651.25,-114.0,-27.36,-240.16
518803.8177,337.757,-91.256,965.142,-2030.0,-2975.0,2371.25,-106.4,-9.12,-247.76
518803.8677,352.702,-100.101,964.715,-2126.25,-5285.0,2021.25,-114.0,-19.76,-246.24
518803.9178,354.349,-100.467,965.935,-1767.5,-4453.75,1907.5,-115.52,-12.16,-238.64
518803.9677,355.142,-103.456,962.885,-1662.5,-5635.0,691.25,-118.56,-10.64,-256.88
518804.0177,363.743,-102.114,961.116,-752.5,-5206.25,-385.0,-109.44,-13.68,-256.88
518804.0677,356.911,-92.11,959.652,-621.25,-4593.75,-1260.0,-126.16,-16.72,-253.84
518804.1177,356.423,-87.596,962.153,-2371.25,-4243.75,-1198.75,-107.92,1.52,-256.88
518804.1677,347.7,-94.794,967.643,-2152.5,-4646.25,385.0,-115.52,-6.08,-253.84
518804.2177,352.519,-93.696,963.8,-1601.25,-5547.5,1995.0,-106.4,-12.16,-247.76
518804.2677,356.728,-93.818,962.946,-1321.25,-5241.25,1356.25,-133.76,-27.36,-234.08
518804.3177,355.874,-93.025,957.334,-2030.0,-5320.0,875.0,-109.44,-21.28,-237.12
518804.3677,365.268,-102.175,962.214,-2108.75,-5748.75,481.25,-104.88,-9.12,-237.12
518804.4177,368.562,-89.792,958.005,-183.75,-3543.75,-227.5,-118.56,-15.2,-247.76
518804.4677,354.044,-82.716,958.249,-1828.75,-3640.0,-271.25,-124.64,-19.76,-238.64
518804.5177,356.667,-91.927,961.665,-2773.75,-4550.0,621.25,-92.72,-21.28,-243.2
518804.5677,361.486,-99.308,964.471,-1995.0,-4095.0,2161.25,-118.56,-22.8,-238.64
518804.6177,350.323,-93.33,963.983,-1802.5,-4261.25,2756.25,-115.52,-22.8,-259.92
518804.6677,360.876,-104.127,960.567,-2021.25,-4987.5,1741.25,-101.84,-10.64,-243.2
518804.7177,359.412,-98.698,960.14,-1653.75,-4672.5,1058.75,-101.84,-6.08,-246.24
518804.7677,356.545,-104.432,960.14,-1750.0,-4681.25,262.5,-107.92,-9.12,-256.88
518804.8177,362.828,-104.066,958.859,-1330.0,-5013.75,-113.75,-117.04,-12.16,-243.2
518804.8677,364.963,-93.513,959.713,-1417.5,-3421.25,-507.5,-112.48,-15.2,-258.4
518804.9177,353.434,-95.892,960.628,-2257.5,-3482.5,350.0,-115.52,-13.68,-253.84
518804.9677,351.299,-97.783,964.166,-1933.75,-3876.25,1461.25,-107.92,-10.64,-253.84
518805.0177,351.482,-100.65,961.543,-1995.0,-3937.5,2257.5,-126.16,-16.72,-253.84
518805.0677,349.774,-105.347,965.081,-1268.75,-4077.5,1575.0,-107.92,-10.64,-258.4
518805.1177,350.384,-97.417,962.702,-1601.25,-4611.25,1076.25,-133.76,-7.6,-252.32
518805.1677,352.458,-107.848,960.018,-2528.75,-4926.25,411.25,-112.48,-12.16,-241.68
518805.2177,361.242,-117.242,967.216,-1181.25,-4768.75,323.75,-118.56,-9.12,-255.36
518805.2677,350.445,-87.413,961.177,-1207.5,-3263.75,-673.75,-110.96,-9.12,-235.6
518805.3177,345.077,-97.417,961.909,-2511.25,-3911.25,-245.0,-95.76,-4.56,-256.88
518805.3677,346.907,-101.809,963.007,-1863.75,-4252.5,2047.5,-110.96,-13.68,-234.08
518805.4177,345.809,-102.419,968.375,-1006.25,-3920.0,3001.25,-115.52,-10.64,-252.32
518805.4677,341.478,-104.127,962.336,-2152.5,-5293.75,1820.0,-104.88,-4.56,-247.76
518805.5177,354.776,-107.421,965.142,-1426.25,-5285.0,140.0,-121.6,-21.28,-246.24
518805.5677,351.848,-110.166,962.397,-1487.5,-5171.25,-700.0,-112.48,-12.16,-249.28
518805.6177,354.654,-105.042,963.556,-533.75,-5460.0,-533.75,-104.88,-18.24,-252.32
518805.6677,359.473,-90.951,959.774,-831.25,-4541.25,-875.0,-114.0,7.6,-247.76
518805.7177,353.129,-91.622,961.116,-1855.0,-4138.75,-157.5,-118.56,-12.16,-240.16
518805.7677,354.41,-99.003,961.909,-1715.0,-4103.75,910.0,-110.96,-4.56,-243.2
518805.8177,353.007,-97.966,963.495,-1286.25,-4305.0,1951.25,-126.16,-7.6,-253.84
518805.8677,354.349,-102.846,962.702,-1618.75,-4340.0,1785.0,-118.56,1.52,-252.32
518805.9177,352.702,-101.504,960.628,-988.75,-4488.75,621.25,-100.32,-4.56,-249.28
518805.9677,352.336,-98.027,963.556,-2345.0,-4156.25,-17.5,-114.0,0.0,-258.4
518806.0177,353.983,-111.203,963.251,-1627.5,-4742.5,122.5,-92.72,-21.28,-247.76
518806.0677,355.569,-91.012,963.007,96.25,-2668.75,-297.5,-104.88,-13.68,-249.28
518806.1177,340.624,-84.973,960.384,-2318.75,-3710.0,-376.25,-106.4,-18.24,-238.64
518806.1678,347.761,-99.369,964.898,-2310.0,-4112.5,1102.5,-103.36,-13.68,-256.88
518806.2177,348.127,-103.212,967.765,-1155.0,-3718.75,3115.0,-118.56,-13.68,-237.12
518806.2677,341.051,-97.051,965.447,-1758.75,-4296.25,2082.5,-109.44,3.04,-261.44
518806.3177,347.151,-111.325,964.898,-1732.5,-4978.75,463.75,-97.28,-21.28,-240.16
518806.3677,349.469,-102.785,963.007,-1522.5,-4523.75,236.25,-104.88,-18.24,-253.84
518806.4177,345.199,-106.994,965.142,-1303.75,-5162.5,-105.0,-110.96,-21.28,-253.84
518806.4677,351.604,-98.149,961.543,-743.75,-4795.0,-315.0,-109.44,-10.64,-252.32
518806.5177,353.007,-94.245,959.042,-1312.5,-3981.25,-498.75,-118.56,-13.68,-258.4
518806.5677,342.82,-94.855,966.301,-2213.75,-4165.0,455.0,-101.84,-12.16,-246.24
518806.6177,347.09,-103.822,966.667,-1268.75,-4620.0,2082.5,-110.96,-16.72,-259.92
518806.6677,340.38,-102.236,965.386,-1295.0,-4471.25,1942.5,-117.04,-7.6,-235.6
518806.7177,344.711,-106.567,966.911,-1627.5,-4733.75,647.5,-106.4,-9.12,-253.84
518806.7677,346.846,-101.504,963.861,-1522.5,-5162.5,306.25,-114.0,-13.68,-246.24
518806.8177,347.212,-105.164,963.007,-2030.0,-5136.25,350.0,-114.0,-22.8,-249.28
518806.8677,361.913,-113.521,965.142,-96.25,-4025.0,157.5,-114.0,-7.6,-261.44
518806.9177,347.517,-86.193,963.556,-840.0,-3316.25,-647.5,-107.92,4.56,-246.24
518806.9677,345.016,-95.465,963.129,-2870.0,-4637.5,-481.25,-130.72,-12.16,-253.84
518807.0177,347.029,-104.188,966.789,-2135.0,-4497.5,1653.75,-95.76,-22.8,-238.64
518807.0677,345.443,-102.968,962.946,-857.5,-3893.75,3115.0,-107.92,-21.28,-258.4
518807.1177,348.066,-106.811,966.667,-2170.0,-5232.5,1321.25,-117.04,15.2,-241.68
518807.1677,353.739,-109.678,964.349,-1890.0,-4891.25,210.0,-112.48,-15.2,-253.84
518807.2177,343.186,-106.567,962.58,-1820.0,-4681.25,8.75,-104.88,-13.68,-247.76
518807.2677,346.358,-105.774,964.288,-1023.75,-5215.0,-507.5,-115.52,-4.56,-246.24
518807.3177,355.508,-101.077,963.312,-883.75,-4847.5,-542.5,-112.48,-15.2,-243.2
518807.3677,344.833,-95.953,965.142,-1881.25,-4418.75,-621.25,-123.12,-13.68,-253.84
518807.4177,343.674,-99.918,967.338,-1846.25,-4698.75,87.5,-92.72,-9.12,-256.88
518807.4677,346.907,-100.223,966.24,-1505.0,-4611.25,1128.75,-100.32,-19.76,-252.32
518807.5177,345.016,-106.079,966.545,-1741.25,-4663.75,1400.0,-112.48,-25.84,-237.12
518807.5677,345.748,-102.419,967.216,-1233.75,-5013.75,1636.25,-109.44,-21.28,-240.16
518807.6177,351.97,-106.872,963.434,-2170.0,-5118.75,682.5,-106.4,-10.64,-270.56
518807.6677,355.752,-107.299,963.007,-1925.0,-5328.75,-297.5,-112.48,-19.76,-253.84
518807.7177,352.885,-96.075,961.299,-595.0,-3045.0,-778.75,-101.84,-4.56,-249.28
518807.7677,335.256,-94.062,967.521,-1986.25,-4672.5,-621.25,-117.04,-25.84,-255.36
518807.8177,346.663,-98.393,962.885,-2126.25,-4628.75,787.5,-124.64,-16.72,-237.12
518807.8677,345.992,-104.493,967.033,-1505.0,-4550.0,2030.0,-112.48,-3.04,-261.44
518807.9177,346.236,-103.273,965.02,-2126.25,-5740.0,1898.75,-106.4,6.08,-256.88
518807.9677,351.299,-104.676,963.495,-1986.25,-5346.25,1295.0,-106.4,-10.64,-253.84
518808.0177,347.273,-109.19,963.922,-1758.75,-5311.25,1050.0,-114.0,-13.68,-261.44
518808.0677,353.983,-108.885,961.604,-1522.5,-5670.0,577.5,-110.96,-7.6,-267.52
518808.1177,354.654,-107.604,960.75,-507.5,-4847.5,-612.5,-109.44,-16.72,-240.16
518808.1677,351.848,-93.879,963.129,-1583.75,-4147.5,-1277.5,-104.88,-6.08,-270.56
518808.2177,353.617,-98.088,961.665,-2047.5,-3578.75,-787.5,-112.48,-24.32,-253.84
518808.2677,341.6,-98.881,967.46,-980.0,-4795.0,1198.75,-121.6,-6.08,-252.32
518808.3177,351.848,-97.905,963.617,-1872.5,-5171.25,1618.75,-129.2,7.6,-255.36
518808.3677,350.018,-105.164,964.044,-1645.0,-5092.5,1522.5,-95.76,-18.24,-240.16
518808.4178,353.495,-106.201,961.909,-1995.0,-5530.0,1146.25,-115.52,-18.24,-258.4
518808.4677,360.998,-104.737,959.225,-1610.0,-5285.0,621.25,-120.08,-7.6,-240.16
518808.5177,352.397,-99.308,965.874,-350.0,-1618.75,393.75,-104.88,-19.76,-262.96
518808.5677,327.875,-93.391,966.85,-1522.5,-2800.0,253.75,-95.76,-16.72,-247.76
518808.6177,333.365,-98.576,968.009,-3228.75,-4961.25,288.75,-114.0,-9.12,-244.72
518808.6677,343.857,-106.811,969.046,-2135.0,-5906.25,1811.25,-97.28,-15.2,-237.12
518808.7177,344.162,-103.334,961.909,-2021.25,-5818.75,2432.5,-117.04,-4.56,-249.28
518808.7677,355.325,-113.155,963.556,-1872.5,-5827.5,2511.25,-98.8,-3.04,-259.92
518808.8177,352.946,-106.201,962.763,-2178.75,-5372.5,1811.25,-112.48,-4.56,-246.24
518808.8677,353.129,-113.582,963.739,-2213.75,-5801.25,743.75,-121.6,-12.16,-246.24
518808.9177,360.083,-111.569,956.968,-883.75,-5337.5,17.5,-114.0,-18.24,-252.32
518808.9677,362.889,-101.077,958.432,-1146.25,-4305.0,-516.25,-107.92,-6.08,-238.64
518809.0177,350.201,-100.955,962.153,-2406.25,-3963.75,-262.5,-97.28,-12.16,-261.44
518809.0677,350.689,-108.824,965.203,-1662.5,-4392.5,1758.75,-109.44,-21.28,-243.2
518809.1177,351.726,-106.811,962.824,-1680.0,-4655.0,1872.5,-104.88,-13.68,-261.44
518809.1677,351.421,-112.728,962.58,-1933.75,-4278.75,1268.75,-110.96,-3.04,-252.32
518809.2177,348.066,-110.776,962.153,-1365.0,-3972.5,1295.0,-103.36,-13.68,-243.2
518809.2677,347.334,-108.275,962.58,-2992.5,-5057.5,796.25,-109.44,-4.56,-243.2
518809.3177,363.011,-123.342,964.654,-1321.25,-4593.75,997.5,-103.36,-16.72,-262.96
518809.3677,350.994,-103.09,960.75,-306.25,-2966.25,105.0,-98.8,-25.84,-250.8
518809.4177,341.661,-100.345,962.336,-2975.0,-3815.0,-752.5,-103.36,-13.68,-250.8
518809.4677,342.454,-115.229,969.107,-2493.75,-4401.25,1671.25,-106.4,-7.6,-264.48
518809.5177,343.613,-114.192,966.484,-1286.25,-4611.25,3316.25,-97.28,-7.6,-252.32
518809.5677,343.552,-114.436,962.275,-2292.5,-5486.25,2362.5,-101.84,3.04,-249.28
518809.6177,354.166,-122.0,961.177,-1750.0,-5153.75,866.25,-112.48,-16.72,-249.28
518809.6677,352.641,-116.998,959.652,-2117.5,-4453.75,463.75,-97.28,1.52,-250.8
518809.7177,348.859,-120.841,960.384,-927.5,-3928.75,271.25,-115.52,-6.08,-279.68
518809.7677,351.543,-116.083,962.946,-638.75,-4147.5,367.5,-100.32,-19.76,-255.36
518809.8177,341.661,-105.408,965.142,-1426.25,-3885.0,-446.25,-104.88,-22.8,-246.24
518809.8677,346.114,-105.591,964.654,-2187.5,-4348.75,-481.25,-94.24,3.04,-249.28
518809.9177,342.454,-114.192,964.959,-1478.75,-4742.5,1636.25,-110.96,-9.12,-243.2
518809.9677,344.467,-113.216,963.8,-1400.0,-4436.25,1758.75,-120.08,3.04,-266.0
518810.0177,345.321,-113.582,962.336,-1128.75,-4576.25,1163.75,-104.88,3.04,-240.16
518810.0677,344.101,-106.994,963.983,-2616.25,-4681.25,350.0,-101.84,-7.6,-259.92
518810.1177,347.395,-122.0,966.911,-1618.75,-5311.25,717.5,-94.24,-6.08,-252.32
518810.1677,354.166,-115.778,961.787,323.75,-4401.25,437.5,-107.92,-10.64,-255.36
518810.2177,345.199,-98.515,960.872,-2826.25,-4453.75,-647.5,-104.88,-10.64,-261.44
518810.2677,341.6,-109.434,963.007,-2773.75,-4138.75,323.75,-114.0,-19.76,-269.04
518810.3177,340.929,-119.133,969.229,-1382.5,-4655.0,3736.25,-109.44,-7.6,-240.16
518810.3677,336.842,-115.046,964.776,-1461.25,-5145.0,2021.25,-107.92,-9.12,-253.84
518810.4177,343.918,-123.403,963.861,-1828.75,-6011.25,682.5,-112.48,-15.2,-258.4
518810.4677,355.569,-111.386,959.103,-1233.75,-4742.5,-245.0,-109.44,4.56,-253.84
518810.5177,347.639,-111.752,962.702,-2091.25,-4628.75,-446.25,-109.44,-7.6,-252.32
518810.5677,352.214,-115.961,962.458,-1181.25,-4532.5,17.5,-127.68,-6.08,-234.08
518810.6177,352.458,-106.445,958.615,-1478.75,-3587.5,-411.25,-100.32,-7.6,-266.0
518810.6678,342.698,-106.933,965.752,-2143.75,-3631.25,-236.25,-109.44,-4.56,-253.84
518810.7177,343.735,-117.547,965.02,-1776.25,-3701.25,1190.0,-126.16,-12.16,-253.84
518810.7677,342.759,-113.155,961.482,-1365.0,-4427.5,1846.25,-106.4,3.04,-261.44
518810.8177,343.491,-117.852,964.959,-1557.5,-3911.25,1330.0,-120.08,-6.08,-259.92
518810.8677,336.293,-109.556,963.129,-2065.0,-4672.5,770.0,-92.72,3.04,-247.76
518810.9177,341.112,-117.547,964.471,-2660.0,-4847.5,595.0,-112.48,-12.16,-249.28
518810.9677,355.813,-126.575,965.081,-822.5,-4401.25,603.75,-101.84,-3.04,-247.76
518811.0177,335.927,-103.883,963.19,-1242.5,-3272.5,157.5,-117.04,1.52,-246.24
518811.0677,335.744,-110.349,964.837,-2563.75,-4182.5,-481.25,-89.68,-3.04,-262.96
518811.1177,336.903,-116.571,967.033,-1907.5,-4760.0,1225.0,-109.44,1.52,-249.28
518811.1677,337.147,-114.802,967.643,-1312.5,-4628.75,2275.0,-101.84,4.56,-253.84
518811.2177,337.33,-125.416,963.983,-2511.25,-6317.5,2170.0,-112.48,1.52,-253.84
518811.2677,342.454,-121.573,965.569,-1085.0,-5355.0,1645.0,-107.92,-4.56,-253.84
518811.3177,344.345,-120.841,961.055,-1321.25,-5775.0,647.5,-106.4,-4.56,-258.4
518811.3677,349.225,-119.743,961.543,-1216.25,-5661.25,-717.5,-103.36,-6.08,-259.92
518811.4177,351.97,-112.728,957.151,-647.5,-5223.75,-612.5,-101.84,4.56,-250.8
518811.4677,349.896,-103.883,960.14,-1907.5,-4235.0,-726.25,-114.0,-10.64,-237.12
518811.5177,341.356,-113.216,965.02,-1785.0,-4200.0,350.0,-110.96,-3.04,-261.44
518811.5677,344.345,-112.118,964.288,-1758.75,-4585.0,621.25,-104.88,-15.2,-243.2
518811.6177,341.539,-117.913,963.922,-1855.0,-4646.25,1286.25,-117.04,-6.08,-256.88
518811.6677,346.297,-110.898,963.983,-1898.75,-4471.25,1583.75,-101.84,-18.24,-244.72
518811.7177,342.637,-117.425,963.373,-3062.5,-4961.25,1417.5,-124.64,-3.04,-244.72
518811.7677,360.144,-128.283,964.105,-1032.5,-4768.75,988.75,-112.48,-13.68,-255.36
518811.8177,349.835,-111.996,958.554,-603.75,-2415.0,-183.75,-97.28,13.68,-255.36
518811.8677,335.622,-110.044,963.251,-2555.0,-3815.0,-665.0,-114.0,3.04,-256.88
518811.9177,335.439,-124.623,971.303,-1627.5,-3797.5,1715.0,-97.28,-19.76,-244.72
518811.9677,337.574,-121.085,969.168,-603.75,-4926.25,2835.0,-121.6,-4.56,-249.28
518812.0177,342.82,-119.804,963.373,-1487.5,-5573.75,1758.75,-109.44,-9.12,-249.28
518812.0677,346.785,-122.732,965.447,-1268.75,-4690.0,883.75,-101.84,-3.04,-253.84
518812.1177,337.147,-115.717,965.691,-1592.5,-4970.0,848.75,-115.52,-12.16,-243.2
518812.1677,342.515,-126.514,963.373,-1321.25,-5626.25,52.5,-85.12,0.0,-259.92
518812.2177,345.321,-120.719,961.177,-743.75,-5503.75,-113.75,-123.12,-10.64,-253.84
518812.2677,343.125,-108.885,963.068,-1846.25,-4926.25,-1146.25,-115.52,-3.04,-247.76
518812.3177,345.931,-115.534,964.105,-2441.25,-4567.5,-315.0,-121.6,-18.24,-259.92
518812.3677,340.563,-113.765,967.46,-1627.5,-4453.75,1251.25,-103.36,-24.32,-249.28
518812.4177,340.563,-114.375,966.545,-2073.75,-5101.25,2021.25,-107.92,-9.12,-244.72
518812.4677,335.073,-123.708,967.46,-1942.5,-5880.0,2248.75,-103.36,-12.16,-256.88
518812.5177,346.114,-119.011,959.957,-2213.75,-5801.25,1601.25,-110.96,-6.08,-256.88
518812.5677,353.312,-127.002,957.822,-2310.0,-5766.25,105.0,-115.52,-7.6,-238.64
518812.6177,364.536,-133.651,961.726,-805.0,-4068.75,-122.5,-117.04,-3.04,-237.12
518812.6677,337.391,-110.715,961.055,-1338.75,-3080.0,-297.5,-95.76,-4.56,-262.96
518812.7177,337.574,-111.996,965.081,-2607.5,-4095.0,-743.75,-100.32,0.0,-244.72
518812.7677,339.038,-123.464,966.362,-2091.25,-4392.5,1295.0,-106.4,-15.2,-241.68
518812.8177,336.11,-118.157,963.312,-1391.25,-5092.5,2660.0,-95.76,-7.6,-244.72
518812.8677,347.456,-124.013,962.58,-2450.0,-5897.5,2493.75,-109.44,-24.32,-238.64
518812.9178,346.114,-125.355,962.214,-1811.25,-5363.75,1601.25,-103.36,-6.08,-252.32
518812.9677,341.966,-125.904,963.251,-1811.25,-5285.0,1111.25,-107.92,-3.04,-244.72
518813.0177,347.09,-129.808,962.153,-1023.75,-5766.25,175.0,-100.32,-7.6,-238.64
518813.0677,355.508,-116.266,959.591,-1163.75,-4611.25,-927.5,-114.0,3.04,-237.12
518813.1177,348.31,-114.863,961.665,-1995.0,-4217.5,-962.5,-101.84,-6.08,-240.16
518813.1677,344.894,-120.597,966.24,-1732.5,-4007.5,883.75,-109.44,13.68,-246.24
518813.2177,340.99,-119.926,966.24,-1575.0,-4838.75,2240.0,-83.6,-9.12,-240.16
518813.2677,341.905,-125.355,963.434,-1933.75,-4926.25,1426.25,-115.52,3.04,-252.32
518813.3177,344.528,-120.597,961.97,-1583.75,-4777.5,638.75,-100.32,10.64,-234.08
518813.3677,342.759,-120.719,961.97,-2756.25,-5162.5,945.0,-100.32,10.64,-246.24
518813.4177,355.752,-137.433,964.044,-1907.5,-5915.0,1085.0,-112.48,-4.56,-244.72
518813.4677,347.029,-115.534,961.36,-735.0,-4226.25,183.75,-101.84,1.52,-243.2
518813.5177,343.247,-113.643,957.761,-2353.75,-4462.5,-1356.25,-115.52,-4.56,-249.28
518813.5677,343.979,-124.928,964.959,-2362.5,-4243.75,262.5,-104.88,-6.08,-246.24
518813.6177,342.149,-126.209,966.728,-1303.75,-4515.0,2485.0,-104.88,6.08,-252.32
518813.6677,339.77,-119.621,965.325,-2091.25,-5232.5,2240.0,-91.2,0.0,-259.92
518813.7177,352.031,-132.797,963.19,-1548.75,-5451.25,1382.5,-109.44,-3.04,-258.4
518813.7677,352.58,-126.331,959.774,-1907.5,-4523.75,717.5,-115.52,7.6,-252.32
518813.8177,344.711,-130.235,961.36,-1592.5,-4935.0,280.0,-100.32,16.72,-261.44
518813.8677,352.458,-125.66,960.811,-918.75,-4488.75,-8.75,-104.88,-4.56,-247.76
518813.9177,353.19,-119.133,961.543,-1435.0,-3893.75,-52.5,-112.48,-3.04,-243.2
518813.9677,343.125,-121.207,963.19,-1995.0,-4970.0,525.0,-103.36,12.16,-246.24
518814.0177,348.371,-126.331,964.532,-1881.25,-4690.0,1426.25,-104.88,-4.56,-247.76
518814.0677,343.43,-129.32,961.97,-1487.5,-4725.0,1916.25,-109.44,0.0,-261.44
518814.1177,343.003,-127.429,961.665,-1286.25,-4628.75,813.75,-110.96,4.56,-249.28
518814.1677,346.846,-123.708,960.689,-2178.75,-5276.25,288.75,-112.48,-4.56,-244.72
518814.2177,350.201,-135.908,962.214,-1487.5,-5503.75,778.75,-106.4,12.16,-247.76
518814.2677,361.242,-134.261,960.994,472.5,-3806.25,288.75,-115.52,4.56,-241.68
518814.3177,338.977,-113.277,963.373,-1566.25,-3237.5,-1032.5,-109.44,-7.6,-249.28
518814.3677,336.598,-127.124,963.617,-2266.25,-4340.0,-183.75,-103.36,-6.08,-246.24
518814.4177,344.101,-132.553,965.081,-1347.5,-4620.0,1627.5,-104.88,10.64,-255.36
518814.4677,344.65,-124.257,960.872,-1618.75,-3981.25,971.25,-103.36,10.64,-253.84
518814.5177,345.809,-136.457,963.434,-1417.5,-4331.25,-735.0,-103.36,4.56,-253.84
518814.5677,342.698,-127.246,966.301,-1277.5,-4550.0,-691.25,-95.76,-3.04,-253.84
518814.6177,346.541,-133.224,963.739,-805.0,-5075.0,-875.0,-104.88,-6.08,-246.24
518814.6677,349.591,-127.551,962.641,-26.25,-4865.0,-1575.0,-107.92,-3.04,-256.88
518814.7177,353.129,-113.887,961.055,-848.75,-3727.5,-2607.5,-110.96,-7.6,-246.24
518814.7677,344.772,-117.73,962.824,-1426.25,-3745.0,-962.5,-97.28,7.6,-252.32
518814.8177,349.957,-116.815,960.811,-560.0,-3631.25,840.0,-101.84,1.52,-244.72
518814.8677,342.027,-117.425,965.264,-1636.25,-3272.5,752.5,-112.48,12.16,-250.8
518814.9177,338.916,-126.209,969.717,-822.5,-3640.0,402.5,-114.0,4.56,-246.24
518814.9677,331.596,-112.24,963.007,-1356.25,-4235.0,-323.75,-110.96,-3.04,-255.36
518815.0177,341.295,-124.623,964.898,-2030.0,-5591.25,-1295.0,-107.92,1.52,-262.96
518815.0677,362.645,-135.481,960.75,551.25,-3316.25,-525.0,-103.36,-9.12,-255.36
518815.1177,355.325,-105.347,977.769,-3955.0,-6475.0,-4532.5,-118.56,0.0,-250.8
518815.1678,374.662,-127.673,957.395,-1758.75,-6081.25,-1137.5,-114.0,-6.08,-252.32
518815.2177,366.305,-127.246,944.219,-1102.5,-5705.0,3438.75,-109.44,-12.16,-253.84
518815.2677,351.665,-120.536,946.354,2861.25,1601.25,5250.0,-94.24,-15.2,-259.92
518815.3177,300.974,-124.135,956.48,2677.5,1487.5,4891.25,-115.52,9.12,-259.92
518815.3677,318.542,-107.482,973.072,4786.25,5906.25,140.0,-107.92,-9.12,-246.24
518815.4177,237.107,-68.869,1007.415,-61.25,4243.75,-1662.5,-103.36,-10.64,-262.96
518815.4677,284.87,-80.947,995.642,463.75,2091.25,-2240.0,-89.68,-16.72,-252.32
518815.5177,254.858,-60.207,994.788,-630.0,4637.5,3780.0,-106.4,-12.16,-258.4
518815.5677,308.111,-111.63,1029.741,2143.75,-6641.25,6737.5,-94.24,-21.28,-270.56
518815.6177,292.861,-63.013,972.523,-2458.75,-6851.25,9056.25,-88.16,-12.16,-272.08
518815.6677,389.729,-121.39,946.232,-5206.25,-13825.0,6711.25,-112.48,-3.04,-256.88
518815.7177,362.34,-125.965,950.746,-4121.25,-8653.75,4996.25,-86.64,0.0,-267.52
518815.7677,367.281,-129.747,941.23,402.5,-8347.5,3596.25,-107.92,1.52,-253.84
518815.8177,353.373,-94.977,937.326,-2108.75,253.75,5416.25,-89.68,6.08,-266.0
518815.8677,306.159,-112.179,991.555,1487.5,7262.5,-4523.75,-100.32,-4.56,-252.32
518815.9177,230.153,-101.626,992.592,-5652.5,621.25,-1426.25,-89.68,-6.08,-261.44
518815.9677,273.951,-134.688,1008.635,-1601.25,-2502.5,-1085.0,-109.44,-3.04,-247.76
518816.0177,331.718,-85.461,972.889,-840.0,-8513.75,-7113.75,-97.28,-21.28,-259.92
518816.0677,333.67,-55.937,935.374,-10622.5,-3176.25,-10185.0,-97.28,-9.12,-269.04
518816.1177,328.973,-139.568,962.885,-9992.5,-1907.5,-6422.5,-100.32,-10.64,-259.92
518816.1677,314.882,-128.527,964.776,52.5,8391.25,-630.0,-104.88,-9.12,-258.4
518816.2177,261.08,-102.114,983.93,-3928.75,5372.5,-1426.25,-91.2,-4.56,-253.84
518816.2677,210.572,-128.71,989.908,-3876.25,3718.75,-621.25,-82.08,-12.16,-262.96
518816.3177,247.111,-155.55,1002.84,2572.5,-472.5,4270.0,-100.32,-22.8,-272.08
518816.3677,242.231,-122.366,1001.071,4252.5,-1557.5,3473.75,-71.44,3.04,-270.56
518816.4177,239.364,-111.325,984.174,-743.75,-910.0,297.5,-92.72,-13.68,-279.68
518816.4677,227.286,-96.807,986.797,288.75,-2625.0,-813.75,-88.16,-12.16,-261.44
518816.5177,252.784,-119.865,1005.28,1435.0,-4847.5,-787.5,-88.16,-7.6,-261.44
518816.5677,252.357,-117.242,983.198,-1522.5,-8715.0,2423.75,-83.6,-21.28,-264.48
518816.6177,262.666,-117.73,988.261,787.5,-6492.5,848.75,-101.84,-13.68,-269.04
518816.6677,307.867,-116.51,1000.522,-4243.75,-12416.25,-3648.75,-91.2,10.64,-266.0
518816.7177,296.216,-105.591,958.981,-5425.0,-7411.25,-7630.0,-85.12,-3.04,-264.48
518816.7677,296.155,-142.618,976.244,-726.25,-6177.5,-6028.75,-89.68,-6.08,-264.48
518816.8177,293.166,-91.744,981.246,1653.75,-1925.0,-332.5,-100.32,-10.64,-270.56
518816.8677,250.893,-98.82,1002.535,656.25,-7306.25,3176.25,-82.08,-25.84,-267.52
518816.9177,294.081,-109.068,986.98,376.25,-17333.75,7472.5,-71.44,-4.56,-281.2
518816.9677,319.579,-117.303,956.602,3780.0,-14035.0,7026.25,-109.44,-10.64,-272.08
518817.0177,325.557,-84.18,960.75,1155.0,-10928.75,1881.25,-92.72,12.16,-264.48
518817.0677,250.039,-78.324,979.843,5118.75,455.0,-5293.75,-101.84,-19.76,-261.44
518817.1177,264.801,-37.698,981.551,-498.75,-3351.25,-10062.5,-80.56,-15.2,-281.2
518817.1677,235.033,-60.329,1002.901,-971.25,2117.5,-6947.5,-110.96,-16.72,-269.04
518817.2177,250.405,-41.724,996.74,-2301.25,-6396.25,-5416.25,-94.24,-13.68,-270.56
518817.2677,265.655,-91.317,994.544,-3010.0,-6063.75,6072.5,-100.32,-22.8,-267.52
518817.3177,296.033,-49.166,1002.047,-52.5,-10010.0,2196.25,-83.6,-15.2,-267.52
518817.3677,313.723,-73.81,968.497,-6230.0,-8496.25,-918.75,-94.24,0.0,-262.96
518817.4178,321.47,-93.33,979.843,-7437.5,-9983.75,2983.75,-107.92,-19.76,-267.52
518817.4677,337.025,-122.671,941.352,-822.5,-12460.0,10325.0,-110.96,-15.2,-253.84
518817.5177,388.753,-109.373,961.421,-1741.25,-7437.5,8452.5,-104.88,-7.6,-249.28
518817.5677,336.781,-122.915,963.251,-2231.25,-3613.75,1365.0,-95.76,-16.72,-262.96
518817.6177,337.269,-99.491,956.541,-1750.0,1260.0,-1767.5,-104.88,-3.04,-269.04
518817.6677,292.007,-98.271,979.66,-2187.5,3150.0,-2563.75,-100.32,-7.6,-272.08
518817.7177,273.158,-111.996,1000.034,-3132.5,-4515.0,-761.25,-98.8,-22.8,-278.16
518817.7677,304.939,-124.623,989.176,-638.75,-5678.75,1513.75,-103.36,0.0,-262.96
518817.8177,290.909,-118.889,966.545,192.5,-4795.0,2380.0,-100.32,-10.64,-262.96
518817.8677,290.97,-100.589,977.342,-822.5,-2275.0,-3955.0,-85.12,-6.08,-266.0
518817.9177,287.737,-106.567,987.895,-1968.75,-3753.75,-6160.0,-110.96,-3.04,-246.24
518817.9677,281.515,-100.406,995.581,883.75,-2441.25,-4795.0,-92.72,-22.8,-275.12
518818.0177,273.951,-84.729,994.361,1505.0,-5153.75,-2528.75,-117.04,-34.96,-285.76
518818.0677,292.495,-75.518,980.331,-437.5,-8198.75,-1391.25,-82.08,-13.68,-266.0
518818.1177,322.934,-83.326,970.083,-621.25,-6466.25,-1312.5,-97.28,-12.16,-259.92
518818.1677,318.664,-79.971,972.34,-805.0,-5442.5,-1750.0,-94.24,-15.2,-269.04
518818.2177,312.869,-75.64,974.841,-1557.5,-4716.25,-1356.25,-104.88,-15.2,-287.28
518818.2677,316.956,-80.886,976.061,-1522.5,-4191.25,-1443.75,-103.36,-16.72,-273.6
518818.3177,303.048,-78.141,974.658,-1347.5,-4243.75,-1251.25,-95.76,-9.12,-270.56
518818.3677,306.098,-68.32,980.087,-1881.25,-4751.25,-166.25,-104.88,-16.72,-261.44
518818.4177,303.658,-75.64,975.512,-2668.75,-5486.25,638.75,-104.88,-10.64,-276.64
518818.4677,308.843,-84.607,977.647,-1076.25,-4593.75,1898.75,-103.36,-18.24,-249.28
518818.5177,311.1,-78.263,976.183,-1662.5,-4838.75,2957.5,-98.8,-22.8,-253.84
518818.5677,308.172,-83.631,982.893,-1198.75,-4847.5,2695.0,-101.84,-28.88,-258.4
518818.6177,302.499,-80.032,977.83,-1408.75,-4208.75,2738.75,-92.72,-22.8,-267.52
518818.6677,302.194,-83.57,977.769,-1163.75,-4952.5,2021.25,-88.16,-24.32,-259.92
518818.7177,309.819,-80.459,978.501,-1618.75,-5040.0,288.75,-89.68,-15.2,-256.88
518818.7677,307.257,-81.435,976.671,-2397.5,-4313.75,-420.0,-104.88,-28.88,-259.92
518818.8177,305.122,-85.827,978.806,-2143.75,-4296.25,-122.5,-101.84,-38.0,-253.84
518818.8677,304.024,-86.437,979.66,-1960.0,-4445.0,770.0,-109.44,-13.68,-276.64
518818.9177,301.523,-82.899,978.623,-1408.75,-4427.5,1487.5,-86.64,-13.68,-270.56
518818.9677,300.974,-81.496,978.623,-2248.75,-5022.5,2003.75,-89.68,-16.72,-272.08
518819.0177,305.915,-94.55,977.525,-2738.75,-5407.5,1540.0,-95.76,-34.96,-264.48
518819.0677,317.566,-98.82,977.159,-1575.0,-4392.5,682.5,-112.48,-16.72,-264.48
518819.1177,297.314,-81.862,978.257,-1435.0,-3596.25,70.0,-104.88,-10.64,-272.08
518819.1677,301.889,-84.302,975.512,-2441.25,-4392.5,-516.25,-100.32,-3.04,-262.96
518819.2177,302.987,-87.962,978.013,-2283.75,-4383.75,682.5,-100.32,-16.72,-264.48
518819.2677,300.791,-88.145,976.427,-1093.75,-4042.5,2301.25,-95.76,-16.72,-267.52
518819.3177,306.403,-85.522,977.647,-2047.5,-5005.0,2117.5,-103.36,-7.6,-262.96
518819.3677,314.943,-91.073,973.987,-2030.0,-3561.25,1216.25,-106.4,-31.92,-266.0
518819.4177,306.464,-98.82,979.355,-1811.25,-2380.0,1487.5,-82.08,-21.28,-258.4
518819.4677,304.085,-99.43,979.904,-875.0,-2756.25,1120.0,-88.16,-9.12,-269.04
518819.5177,297.802,-88.267,982.283,-735.0,-3036.25,-78.75,-92.72,-12.16,-253.84
518819.5677,296.155,-84.668,980.209,-1373.75,-3228.75,-743.75,-89.68,-10.64,-266.0
518819.6177,296.826,-85.766,978.196,-1557.5,-3263.75,-271.25,-80.56,-22.8,-262.96
518819.6677,293.837,-84.241,979.721,-1531.25,-3167.5,980.0,-98.8,-16.72,-261.44
518819.7177,294.081,-87.901,983.198,-1356.25,-3193.75,1846.25,-95.76,-6.08,-246.24
518819.7678,287.554,-84.729,983.747,-1295.0,-3561.25,1540.0,-98.8,-12.16,-253.84
518819.8177,290.909,-93.391,981.429,-2301.25,-4296.25,752.5,-89.68,-15.2,-267.52
518819.8677,300.242,-99.186,982.344,-1050.0,-4130.0,236.25,-95.76,-18.24,-269.04
518819.9177,288.225,-77.653,979.233,-796.25,-2773.75,-560.0,-89.68,-13.68,-267.52
518819.9677,283.04,-76.921,983.686,-2030.0,-3447.5,-525.0,-103.36,-18.24,-264.48
518820.0177,280.6,-83.204,985.882,-2493.75,-3902.5,831.25,-100.32,-16.72,-278.16
518820.0677,276.574,-88.511,986.126,-1295.0,-3587.5,2660.0,-94.24,-28.88,-275.12
518820.1177,276.269,-87.108,986.248,-2082.5,-5293.75,2721.25,-88.16,-21.28,-259.92
518820.1677,290.238,-91.5,983.686,-1750.0,-5425.0,1715.0,-85.12,-24.32,-262.96
518820.2177,284.87,-89.792,983.808,-2231.25,-5258.75,1461.25,-95.76,-13.68,-255.36
518820.2677,284.504,-94.916,985.211,-1513.75,-5932.5,848.75,-100.32,-18.24,-262.96
518820.3177,296.643,-88.572,980.087,-1312.5,-5495.0,-17.5,-85.12,-19.76,-269.04
518820.3677,290.116,-81.923,979.355,-1820.0,-4891.25,-446.25,-85.12,-15.2,-272.08
518820.4177,291.946,-89.121,978.44,-2450.0,-4742.5,437.5,-100.32,-9.12,-272.08
518820.4677,296.033,-91.256,980.758,-1750.0,-4270.0,2126.25,-95.76,-19.76,-281.2
518820.5177,290.36,-92.354,981.551,-1715.0,-4042.5,1811.25,-80.56,-22.8,-267.52
518820.5677,290.299,-91.073,980.575,-1627.5,-4278.75,918.75,-103.36,-19.76,-267.52
518820.6177,292.312,-92.232,983.32,-2345.0,-4068.75,603.75,-92.72,-13.68,-273.6
518820.6677,294.325,-102.968,979.782,-2065.0,-4733.75,857.5,-112.48,-6.08,-258.4
518820.7177,293.471,-85.827,981.185,-490.0,-2756.25,166.25,-100.32,3.04,-278.16
518820.7677,285.114,-82.106,983.503,-2065.0,-2712.5,-490.0,-94.24,-22.8,-266.0
518820.8177,279.319,-92.537,983.93,-2625.0,-3640.0,813.75,-95.76,-16.72,-266.0
518820.8677,281.759,-97.051,986.248,-2003.75,-3753.75,2677.5,-91.2,-4.56,-264.48
518820.9177,278.892,-93.94,984.052,-1960.0,-4182.5,2695.0,-71.44,-10.64,-281.2
518820.9677,288.469,-103.029,983.869,-1785.0,-5083.75,1566.25,-94.24,-3.04,-267.52
518821.0177,286.395,-98.027,984.418,-2222.5,-4515.0,857.5,-104.88,-12.16,-272.08
518821.0677,280.844,-102.419,983.869,-1688.75,-4488.75,236.25,-85.12,-22.8,-269.04
518821.1177,284.87,-94.855,985.516,-1093.75,-4445.0,131.25,-91.2,3.04,-281.2
518821.1677,284.87,-89.487,980.697,-1391.25,-4226.25,175.0,-91.2,-12.16,-264.48
518821.2177,274.561,-90.89,981.307,-2292.5,-4462.5,420.0,-100.32,-7.6,-262.96
518821.2677,285.297,-99.491,984.296,-2222.5,-4742.5,1338.75,-104.88,-16.72,-266.0
518821.3177,276.33,-99.308,985.943,-1785.0,-3876.25,1767.5,-83.6,6.08,-266.0
518821.3677,275.415,-99.857,985.821,-1540.0,-4453.75,1260.0,-112.48,-7.6,-262.96
518821.4177,278.221,-94.245,984.784,-1697.5,-4856.25,1198.75,-69.92,-10.64,-273.6
518821.4677,283.101,-104.737,983.137,-2266.25,-5083.75,778.75,-92.72,-9.12,-273.6
518821.5177,289.933,-111.508,982.649,-1277.5,-4873.75,455.0,-72.96,-13.68,-269.04
518821.5677,281.149,-87.84,983.076,-1505.0,-3963.75,-367.5,-100.32,-13.68,-276.64
518821.6177,277.916,-96.685,984.174,-2441.25,-4366.25,-446.25,-92.72,-10.64,-261.44
518821.6677,278.343,-97.966,983.564,-2152.5,-4637.5,1715.0,-80.56,-10.64,-276.64
518821.7177,275.415,-102.358,984.601,-1041.25,-4130.0,2747.5,-101.84,-16.72,-269.04
518821.7677,281.515,-101.199,982.649,-1758.75,-5591.25,1636.25,-101.84,-4.56,-273.6
518821.8177,284.077,-101.504,984.296,-1723.75,-5521.25,350.0,-92.72,16.72,-259.92
518821.8677,282.125,-109.617,981.856,-1575.0,-4908.75,323.75,-97.28,1.52,-272.08
518821.9177,283.345,-105.713,985.211,-901.25,-5241.25,306.25,-98.8,-16.72,-258.4
518821.9677,287.493,-94.001,983.442,-1330.0,-4891.25,-866.25,-91.2,-6.08,-270.56
518822.0177,282.674,-93.635,982.588,-2065.0,-4462.5,-717.5,-100.32,-15.2,-270.56
518822.0677,282.43,-95.404,981.429,-2126.25,-4742.5,516.25,-100.32,-6.08,-285.76
518822.1178,281.454,-100.955,983.198,-1645.0,-4567.5,1723.75,-103.36,1.52,-273.6
518822.1677,280.112,-100.162,984.784,-1785.0,-4707.5,1855.0,-66.88,-3.04,-256.88
518822.2177,280.966,-99.003,982.893,-1750.0,-4795.0,1032.5,-110.96,-19.76,-253.84
518822.2677,285.053,-102.724,982.039,-2283.75,-4891.25,358.75,-82.08,-4.56,-267.52
518822.3177,287.798,-110.593,982.893,-2065.0,-4943.75,568.75,-100.32,-10.64,-276.64
518822.3677,288.286,-102.053,983.32,-533.75,-3333.75,183.75,-118.56,-13.68,-267.52
518822.4177,278.099,-95.343,979.904,-1268.75,-3395.0,-157.5,-91.2,-9.12,-273.6
518822.4677,278.709,-96.441,982.283,-2406.25,-3902.5,-218.75,-106.4,1.52,-270.56
518822.5177,277.062,-106.384,989.725,-1233.75,-3368.75,1662.5,-86.64,0.0,-255.36
518822.5677,270.352,-99.491,985.455,-1277.5,-4532.5,2336.25,-85.12,-22.8,-276.64
518822.6177,281.515,-105.957,985.821,-1881.25,-5145.0,1085.0,-88.16,-10.64,-253.84
518822.6677,275.171,-111.081,983.808,-1478.75,-4838.75,927.5,-95.76,-22.8,-275.12
518822.7177,278.709,-105.896,984.357,-673.75,-5635.0,-78.75,-104.88,-15.2,-258.4
518822.7677,287.188,-96.319,979.233,-892.5,-4436.25,-1478.75,-88.16,-24.32,-269.04
518822.8177,280.295,-95.343,983.686,-1487.5,-4488.75,-1120.0,-98.8,-3.04,-276.64
518822.8677,279.197,-93.635,982.832,-1557.5,-4252.5,61.25,-94.24,-12.16,-272.08
518822.9177,275.903,-96.441,983.808,-1120.0,-4383.75,1058.75,-91.2,12.16,-278.16
518822.9677,278.038,-95.343,985.15,-1487.5,-4628.75,595.0,-100.32,-9.12,-240.16
518823.0177,278.648,-97.844,983.991,-1295.0,-4331.25,682.5,-88.16,-9.12,-255.36
518823.0677,274.744,-91.073,982.649,-1872.5,-4847.5,1023.75,-86.64,-16.72,-261.44
518823.1177,285.297,-106.811,982.344,-1907.5,-5687.5,822.5,-98.8,-13.68,-264.48
518823.1677,289.445,-97.966,982.161,-297.5,-3080.0,350.0,-95.76,-12.16,-276.64
518823.2177,268.827,-89.182,983.808,-1872.5,-3080.0,-140.0,-82.08,0.0,-258.4
518823.2677,272.365,-100.223,986.065,-2922.5,-4488.75,332.5,-95.76,-9.12,-279.68
518823.3177,274.073,-101.138,987.163,-1855.0,-4812.5,1968.75,-88.16,-7.6,-264.48
518823.3677,273.158,-100.528,987.163,-1942.5,-5267.5,2537.5,-85.12,-19.76,-276.64
518823.4177,281.454,-107.787,983.869,-1960.0,-5818.75,1723.75,-98.8,-3.04,-267.52
518823.4677,281.454,-108.092,982.832,-1916.25,-4821.25,988.75,-89.68,-4.56,-272.08
518823.5177,276.025,-112.057,984.601,-1706.25,-6230.0,210.0,-88.16,-3.04,-262.96
518823.5677,289.872,-100.833,980.087,-883.75,-6256.25,-490.0,-74.48,0.0,-256.88
518823.6177,291.519,-97.356,978.379,-1312.5,-5442.5,140.0,-94.24,-7.6,-273.6
518823.6677,282.796,-104.676,983.442,-796.25,-4803.75,577.5,-76.0,-7.6,-276.64
518823.7177,281.332,-99.308,982.71,-673.75,-4331.25,437.5,-89.68,-15.2,-269.04
518823.7677,273.646,-94.367,987.834,-1382.5,-5442.5,-227.5,-86.64,-12.16,-262.96
518823.8177,281.393,-104.005,983.747,-2108.75,-6151.25,831.25,-80.56,-16.72,-281.2
518823.8677,278.831,-101.199,983.137,-1470.0,-6606.25,1505.0,-95.76,0.0,-278.16
518823.9177,291.275,-104.066,979.477,-2686.25,-7000.0,280.0,-89.68,-9.12,-272.08
518823.9677,297.253,-116.388,981.185,-945.0,-6641.25,-1058.75,-85.12,-25.84,-264.48
518824.0177,288.286,-97.051,978.562,-166.25,-5993.75,-1487.5,-91.2,-10.64,-259.92
518824.0677,284.016,-87.718,979.416,-2458.75,-7717.5,-2021.25,-92.72,-16.72,-266.0
518824.1177,290.421,-100.955,982.161,-2625.0,-7805.0,-1102.5,-89.68,-6.08,-278.16
518824.1677,300.608,-99.186,975.024,-1505.0,-7691.25,647.5,-103.36,-4.56,-273.6
518824.2177,302.255,-98.637,976.671,-2703.75,-8461.25,805.0,-86.64,12.16,-264.48
518824.2677,314.272,-102.175,974.292,-2065.0,-6816.25,1128.75,-112.48,-13.68,-264.48
518824.3177,310.673,-101.077,974.17,-2397.5,-5425.0,2047.5,-107.92,-6.08,-256.88
518824.3678,299.388,-110.349,978.135,-1776.25,-5871.25,1697.5,-91.2,-13.68,-266.0
518824.4177,311.039,-103.334,977.342,-1303.75,-5932.5,1347.5,-95.76,4.56,-255.36
518824.4678,313.174,-96.99,974.17,-2546.25,-5066.25,-78.75,-107.92,-9.12,-264.48
518824.5177,303.414,-105.896,977.769,-2660.0,-4873.75,1015.0,-107.92,-18.24,-256.88
518824.5677,311.039,-104.432,977.83,-1933.75,-5678.75,2030.0,-121.6,-13.68,-249.28
518824.6177,305.671,-106.201,974.17,-2502.5,-6212.5,980.0,-98.8,-13.68,-266.0
518824.6677,319.64,-110.105,969.961,-2047.5,-4628.75,262.5,-109.44,-6.08,-264.48
518824.7177,316.529,-106.506,969.534,-2563.75,-4042.5,-140.0,-85.12,0.0,-255.36
518824.7677,305.549,-114.314,975.024,-2152.5,-4313.75,971.25,-94.24,-4.56,-256.88
518824.8177,311.405,-109.434,977.708,-175.0,-3788.75,953.75,-100.32,7.6,-250.8
518824.8677,302.56,-99.918,975.817,-2336.25,-4480.0,-262.5,-107.92,9.12,-270.56
518824.9177,305.732,-108.763,977.281,-2572.5,-3631.25,-70.0,-106.4,4.56,-276.64
518824.9677,300.242,-114.009,980.758,-1312.5,-5731.25,1767.5,-107.92,-4.56,-267.52
518825.0177,304.451,-110.288,976.793,-1085.0,-5932.5,1618.75,-97.28,1.52,-262.96
518825.0677,309.819,-116.022,974.658,-1855.0,-6527.5,218.75,-97.28,4.56,-253.84
518825.1177,318.542,-108.58,973.682,-1400.0,-5565.0,-70.0,-107.92,-10.64,-255.36
518825.1677,310.917,-115.107,976.793,-1321.25,-5705.0,-787.5,-101.84,-13.68,-269.04
518825.2177,316.59,-108.885,971.669,-455.0,-5416.25,-1032.5,-123.12,-6.08,-255.36
518825.2677,318.725,-101.504,971.425,-420.0,-4865.0,-910.0,-101.84,-13.68,-253.84
518825.3177,304.878,-98.637,978.135,-1750.0,-5241.25,-708.75,-106.4,3.04,-272.08
518825.3677,309.392,-104.249,978.257,-1076.25,-5766.25,-61.25,-85.12,3.04,-261.44
518825.4177,313.723,-99.918,972.767,-1881.25,-6448.75,-78.75,-98.8,-6.08,-270.56
518825.4677,317.566,-110.349,974.658,-630.0,-5486.25,-157.5,-104.88,-4.56,-266.0
518825.5177,317.383,-98.82,972.096,-1321.25,-5608.75,-411.25,-124.64,-18.24,-270.56
518825.5677,317.322,-101.016,970.205,-1785.0,-6020.0,-455.0,-95.76,3.04,-267.52
518825.6177,327.021,-111.813,973.56,-96.25,-5302.5,-131.25,-107.92,-19.76,-259.92
518825.6677,316.59,-91.561,969.534,-323.75,-3753.75,-665.0,-114.0,-9.12,-273.6
518825.7177,313.113,-93.696,975.39,-2817.5,-5040.0,-1137.5,-104.88,-16.72,-267.52
518825.7677,316.895,-103.761,972.828,-1802.5,-4620.0,910.0,-94.24,3.04,-259.92
518825.8177,317.871,-96.685,974.902,-1601.25,-4593.75,1863.75,-101.84,-16.72,-249.28
518825.8677,320.128,-110.349,972.157,-2485.0,-5328.75,2196.25,-121.6,-12.16,-258.4
518825.9177,318.969,-108.458,973.377,-805.0,-4725.0,2030.0,-110.96,-13.68,-240.16
518825.9677,322.934,-102.602,971.974,-1680.0,-5048.75,945.0,-94.24,-16.72,-252.32
518826.0177,325.74,-105.774,969.595,-1417.5,-5188.75,-420.0,-88.16,-7.6,-262.96
518826.0677,326.838,-97.295,966.85,-1408.75,-4060.0,-673.75,-109.44,-15.2,-256.88
518826.1177,320.433,-97.783,974.17,-2511.25,-3815.0,-700.0,-106.4,-13.68,-255.36
518826.1677,315.797,-105.408,975.573,-1898.75,-4768.75,883.75,-114.0,-3.04,-249.28
518826.2177,318.908,-99.43,973.987,-1907.5,-4970.0,1417.5,-101.84,-15.2,-256.88
518826.2677,321.897,-106.506,973.865,-1933.75,-4655.0,2100.0,-92.72,-18.24,-259.92
518826.3177,319.213,-103.578,973.377,-1890.0,-4935.0,2091.25,-104.88,-15.2,-255.36
518826.3677,321.531,-112.057,967.155,-2948.75,-5276.25,953.75,-92.72,-9.12,-252.32
518826.4177,336.232,-116.266,970.51,-446.25,-3018.75,437.5,-101.84,-18.24,-258.4
518826.4677,313.052,-97.722,971.913,-1373.75,-2861.25,455.0,-95.76,-3.04,-273.6
518826.5177,319.396,-103.212,972.34,-3018.75,-3955.0,376.25,-94.24,-7.6,-253.84
518826.5677,314.516,-113.643,978.379,-1907.5,-3902.5,1557.5,-100.32,-13.68,-247.76
518826.6177,315.248,-102.175,971.364,-1120.0,-4200.0,2651.25,-97.28,-15.2,-262.96
518826.6677,317.139,-113.216,974.902,-2135.0,-4506.25,1732.5,-98.8,-9.12,-261.44
518826.7177,316.59,-110.105,977.098,-1321.25,-4322.5,1995.0,-83.6,-9.12,-259.92
518826.7677,311.588,-114.619,974.719,-1750.0,-4663.75,2126.25,-101.84,-10.64,-244.72
518826.8178,316.59,-119.255,974.414,-726.25,-5363.75,770.0,-107.92,4.56,-249.28
518826.8677,324.764,-104.615,973.316,-910.0,-3788.75,-551.25,-103.36,-12.16,-253.84
518826.9177,317.322,-104.127,970.754,-2563.75,-3963.75,-1172.5,-91.2,-7.6,-264.48
518826.9677,309.27,-114.131,975.756,-1688.75,-3596.25,498.75,-98.8,-10.64,-261.44
518827.0177,315.675,-101.504,976.183,-1592.5,-5040.0,1216.25,-88.16,-16.72,-256.88
518827.0677,311.527,-112.728,975.39,-1776.25,-5101.25,1181.25,-100.32,3.04,-256.88
518827.1177,311.283,-107.238,975.39,-1802.5,-5416.25,1058.75,-110.96,-15.2,-246.24
518827.1677,317.505,-116.144,971.913,-2607.5,-5503.75,341.25,-101.84,-7.6,-246.24
518827.2177,329.705,-119.743,972.34,-1811.25,-5958.75,752.5,-91.2,-12.16,-262.96
518827.2677,316.895,-101.87,972.828,-595.0,-3290.0,113.75,-104.88,-12.16,-253.84
518827.3177,312.442,-100.711,972.035,-2458.75,-4733.75,-411.25,-91.2,-6.08,-246.24
518827.3677,311.1,-106.384,975.512,-2730.0,-4585.0,735.0,-80.56,-10.64,-255.36
518827.4177,313.906,-110.715,976.061,-1557.5,-4585.0,2686.25,-104.88,-15.2,-256.88
518827.4677,310.246,-110.715,975.939,-2135.0,-5311.25,2703.75,-100.32,-6.08,-253.84
518827.5177,320.494,-120.231,973.194,-1802.5,-5495.0,1365.0,-104.88,4.56,-234.08
518827.5677,316.102,-117.852,971.852,-1925.0,-4690.0,840.0,-101.84,3.04,-256.88
518827.6177,316.956,-118.889,971.364,-1706.25,-5258.75,61.25,-103.36,-9.12,-275.12
518827.6677,323.422,-113.948,968.375,-630.0,-4200.0,-376.25,-110.96,1.52,-255.36
518827.7177,316.59,-104.981,971.852,-1671.25,-3867.5,-848.75,-100.32,-12.16,-258.4
518827.7677,312.259,-108.824,976.671,-1977.5,-4165.0,-35.0,-109.44,10.64,-261.44
518827.8177,316.285,-109.434,976.488,-1295.0,-4996.25,1163.75,-91.2,0.0,-272.08
518827.8677,317.444,-113.46,973.377,-1400.0,-4138.75,892.5,-94.24,-15.2,-246.24
518827.9177,308.599,-107.482,973.316,-1470.0,-4908.75,717.5,-85.12,-7.6,-270.56
518827.9677,318.115,-113.521,973.255,-2187.5,-5188.75,577.5,-86.64,-3.04,-258.4
518828.0177,320.433,-116.51,972.95,-1671.25,-5442.5,962.5,-112.48,10.64,-262.96
518828.0677,324.215,-103.09,971.425,-323.75,-3473.75,-227.5,-92.72,-9.12,-259.92
518828.1177,312.381,-98.698,969.656,-2152.5,-4016.25,-516.25,-83.6,-4.56,-258.4
518828.1677,314.455,-105.652,973.255,-2616.25,-3788.75,455.0,-112.48,-10.64,-247.76
518828.2177,314.333,-116.876,976.0,-1837.5,-3605.0,3255.0,-106.4,18.24,-269.04
518828.2677,305.549,-109.983,979.538,-1680.0,-4226.25,3062.5,-100.32,-4.56,-256.88
518828.3177,317.932,-122.366,974.353,-2826.25,-5617.5,1496.25,-82.08,16.72,-269.04
518828.3677,317.261,-117.608,969.717,-2371.25,-4488.75,927.5,-107.92,6.08,-258.4
518828.4177,310.124,-122.61,975.756,-1977.5,-5145.0,1225.0,-106.4,-15.2,-267.52
518828.4677,322.873,-117.242,967.216,-927.5,-4716.25,665.0,-112.48,-9.12,-247.76
518828.5177,318.359,-114.192,970.693,-1408.75,-3858.75,-306.25,-112.48,3.04,-255.36
518828.5677,312.808,-113.033,975.329,-2616.25,-3640.0,-647.5,-91.2,-12.16,-264.48
518828.6177,311.039,-123.281,976.366,-1356.25,-4016.25,1198.75,-92.72,-6.08,-264.48
518828.6677,307.257,-115.534,976.0,-1242.5,-4200.0,1645.0,-94.24,13.68,-250.8
518828.7177,310.307,-118.889,975.756,-1470.0,-4541.25,1085.0,-98.8,3.04,-259.92
518828.7677,309.758,-114.619,974.414,-1461.25,-4480.0,507.5,-91.2,-6.08,-262.96
518828.8177,312.503,-121.085,972.218,-2353.75,-5477.5,315.0,-95.76,-3.04,-262.96
518828.8677,326.106,-123.525,973.56,-8.75,-3771.25,472.5,-95.76,4.56,-261.44
518828.9177,315.126,-102.846,970.327,-1093.75,-3001.25,87.5,-91.2,0.0,-252.32
518828.9677,311.1,-108.885,972.279,-2730.0,-3955.0,183.75,-83.6,3.04,-249.28
518829.0177,307.074,-117.12,976.183,-2178.75,-3648.75,1741.25,-98.8,-7.6,-276.64
518829.0677,300.242,-119.133,981.429,-1111.25,-3832.5,2432.5,-85.12,-10.64,-264.48
518829.1177,306.281,-122.854,973.072,-2992.5,-5880.0,875.0,-106.4,0.0,-266.0
518829.1678,314.882,-127.368,972.096,-1855.0,-5267.5,796.25,-86.64,-6.08,-256.88
518829.2177,310.063,-127.49,972.828,-1732.5,-4532.5,848.75,-100.32,4.56,-261.44
518829.2677,309.88,-126.026,971.852,-892.5,-4322.5,-358.75,-104.88,-4.56,-266.0
518829.3177,311.222,-118.096,973.072,-778.75,-4313.75,-1382.5,-94.24,13.68,-243.2
518829.3677,305.732,-114.497,975.085,-1968.75,-4060.0,-1330.0,-101.84,-10.64,-256.88
518829.4177,303.658,-121.512,976.305,-1487.5,-4655.0,113.75,-103.36,15.2,-262.96
518829.4677,307.013,-117.364,976.732,-1356.25,-4523.75,1058.75,-79.04,-6.08,-262.96
518829.5177,308.294,-122.0,974.048,-1172.5,-4978.75,805.0,-103.36,-3.04,-258.4
518829.5677,309.331,-117.425,974.78,-1233.75,-4418.75,428.75,-112.48,-7.6,-250.8
518829.6177,310.612,-120.109,970.51,-1898.75,-4663.75,78.75,-89.68,12.16,-253.84
518829.6677,319.518,-125.233,974.841,-1128.75,-4576.25,175.0,-101.84,9.12,-256.88
518829.7177,306.952,-106.445,974.536,-516.25,-2633.75,-568.75,-97.28,13.68,-266.0
518829.7677,304.146,-110.532,977.647,-1960.0,-4051.25,-560.0,-91.2,-3.04,-269.04
518829.8177,300.974,-114.436,978.928,-1890.0,-3937.5,568.75,-91.2,-7.6,-264.48
518829.8677,301.706,-113.399,978.257,-1680.0,-4366.25,2161.25,-104.88,-12.16,-258.4
518829.9177,307.989,-116.083,976.122,-2423.75,-5451.25,2336.25,-94.24,7.6,-272.08
518829.9677,312.015,-117.364,973.072,-2065.0,-4392.5,2213.75,-82.08,-6.08,-273.6
518830.0177,304.329,-125.172,975.024,-1837.5,-4138.75,2318.75,-88.16,-9.12,-273.6
518830.0677,305.183,-122.854,974.719,-1260.0,-4716.25,1435.0,-103.36,4.56,-255.36
518830.1177,310.429,-123.525,974.231,-1120.0,-3963.75,-122.5,-94.24,-9.12,-269.04
518830.1677,300.974,-111.874,975.207,-1618.75,-4121.25,-1032.5,-92.72,4.56,-266.0
518830.2177,302.377,-115.473,976.183,-2283.75,-4060.0,-813.75,-89.68,3.04,-272.08
518830.2677,300.181,-121.268,978.318,-1330.0,-4637.5,271.25,-94.24,18.24,-259.92
518830.3177,299.998,-119.682,975.39,-1400.0,-4383.75,595.0,-100.32,3.04,-264.48
518830.3677,299.815,-115.717,977.342,-1356.25,-5372.5,568.75,-82.08,-6.08,-270.56
518830.4177,300.059,-124.013,976.0,-1811.25,-5643.75,192.5,-107.92,-4.56,-262.96
518830.4677,315.675,-127.917,974.475,-1058.75,-6186.25,-236.25,-91.2,6.08,-258.4
518830.5177,311.832,-111.691,972.462,-96.25,-3158.75,-988.75,-101.84,-6.08,-266.0
518830.5677,305.305,-112.972,975.268,-1435.0,-4427.5,-831.25,-89.68,-6.08,-261.44
518830.6177,305.122,-113.826,975.817,-1111.25,-4033.75,446.25,-106.4,3.04,-267.52
518830.6677,300.486,-112.423,979.355,-1102.5,-3473.75,1076.25,-94.24,-4.56,-261.44
518830.7177,288.347,-111.325,979.355,-1583.75,-4471.25,603.75,-86.64,0.0,-264.48
518830.7677,307.196,-119.56,980.697,-1190.0,-5573.75,481.25,-95.76,7.6,-261.44
518830.8177,306.891,-113.765,975.451,-1960.0,-5188.75,105.0,-91.2,7.6,-253.84
518830.8677,306.952,-121.756,974.719,-1426.25,-5232.5,78.75,-107.92,-15.2,-252.32
518830.9177,314.577,-113.948,971.608,-280.0,-4996.25,-306.25,-101.84,-15.2,-256.88
518830.9677,309.026,-104.676,976.366,-980.0,-4060.0,-1505.0,-91.2,9.12,-253.84
518831.0177,300.364,-111.325,977.22,-2100.0,-4480.0,-1321.25,-106.4,-4.56,-258.4
518831.0677,302.316,-110.593,978.867,-1531.25,-5013.75,805.0,-101.84,-4.56,-267.52
518831.1177,304.451,-111.691,975.939,-1653.75,-5512.5,1575.0,-95.76,-9.12,-249.28
518831.1677,304.817,-116.998,972.401,-1041.25,-4978.75,1487.5,-103.36,-15.2,-266.0
518831.2177,307.867,-109.8,973.072,-1548.75,-4812.5,525.0,-88.16,4.56,-252.32
518831.2677,303.475,-117.913,977.708,-2563.75,-5748.75,-183.75,-71.44,7.6,-261.44
518831.3177,315.797,-124.806,976.0,455.0,-4515.0,-201.25,-83.6,-25.84,-243.2
518831.3677,307.074,-102.602,972.157,-472.5,-4305.0,-577.5,-95.76,-13.68,-272.08
518831.4177,303.109,-108.153,975.695,-2170.0,-5127.5,-1023.75,-104.88,-4.56,-253.84
518831.4677,307.318,-114.68,976.305,-1277.5,-4821.25,1268.75,-107.92,-6.08,-269.04
518831.5178,303.475,-112.972,976.0,-560.0,-4655.0,1793.75,-92.72,-6.08,-253.84
518831.5677,304.512,-113.826,975.756,-1688.75,-5731.25,1391.25,-109.44,-7.6,-261.44
518831.6177,312.015,-116.083,974.231,-910.0,-6046.25,866.25,-101.84,-4.56,-264.48
518831.6677,301.035,-111.508,972.279,-1732.5,-5433.75,-35.0,-101.84,3.04,-252.32
518831.7177,314.333,-113.704,973.133,-1268.75,-7367.5,507.5,-106.4,-4.56,-255.36
518831.7677,323.666,-106.628,972.096,-140.0,-5932.5,236.25,-83.6,-7.6,-259.92
518831.8177,313.784,-100.406,968.375,-1618.75,-5241.25,-603.75,-88.16,-7.6,-261.44
518831.8677,318.969,-109.373,972.95,-1802.5,-6020.0,393.75,-110.96,-3.04,-264.48
518831.9177,306.464,-111.508,979.172,-1076.25,-6221.25,1155.0,-91.2,9.12,-255.36
518831.9677,317.81,-107.055,973.255,-1531.25,-6650.0,1041.25,-101.84,-18.24,-256.88
518832.0177,329.827,-110.41,970.205,-1233.75,-4961.25,603.75,-106.4,-3.04,-249.28
518832.0677,304.573,-103.517,975.512,-2170.0,-6195.0,472.5,-101.84,-10.64,-250.8
518832.1177,330.986,-121.512,973.438,-1645.0,-6711.25,1715.0,-95.76,9.12,-258.4
518832.1677,331.657,-100.772,968.924,-385.0,-2257.5,236.25,-104.88,-13.68,-262.96
518832.2177,316.956,-87.718,969.412,-5477.5,-5040.0,-315.0,-97.28,4.56,-264.48
518832.2677,320.189,-115.595,965.874,-2537.5,-1837.5,-1102.5,-98.8,-13.68,-249.28
518832.3177,327.387,-117.303,974.231,-1015.0,-1163.75,2012.5,-114.0,-7.6,-261.44
518832.3677,297.131,-93.025,983.747,-1601.25,-3185.0,1575.0,-100.32,-4.56,-264.48
518832.4177,302.56,-111.874,980.087,-2660.0,-5171.25,621.25,-68.4,-12.16,-261.44
518832.4677,321.287,-116.876,968.802,-236.25,-8960.0,350.0,-101.84,1.52,-270.56
518832.5177,318.42,-110.898,968.802,-463.75,-6851.25,1636.25,-95.76,-10.64,-255.36
518832.5677,317.627,-109.251,974.048,-157.5,-8575.0,1986.25,-94.24,-6.08,-267.52
518832.6177,320.433,-105.835,969.656,848.75,-8863.75,2135.0,-112.48,-28.88,-258.4
518832.6677,341.966,-99.308,968.009,-297.5,-5346.25,568.75,-120.08,-12.16,-266.0
518832.7177,319.457,-103.761,972.706,-2476.25,-3605.0,-157.5,-118.56,-12.16,-261.44
518832.7677,330.376,-110.654,966.667,-1793.75,-4550.0,-113.75,-82.08,-3.04,-264.48
518832.8177,320.799,-105.286,970.083,-1347.5,-4681.25,385.0,-106.4,-12.16,-259.92
518832.8677,320.738,-102.907,970.022,-2178.75,-3053.75,-717.5,-91.2,-6.08,-246.24
518832.9177,317.383,-110.288,973.255,-1916.25,-4462.5,-1093.75,-107.92,0.0,-259.92
518832.9677,332.511,-112.057,970.144,-411.25,-3683.75,-665.0,-98.8,-7.6,-256.88
518833.0177,328.241,-90.646,967.094,-866.25,-1260.0,-1330.0,-98.8,-13.68,-273.6
518833.0677,320.982,-91.744,973.011,-2992.5,-253.75,-857.5,-107.92,-6.08,-262.96
518833.1177,314.882,-103.273,980.636,-2922.5,-2931.25,498.75,-89.68,1.52,-262.96
518833.1677,313.906,-109.068,981.795,-2677.5,-682.5,918.75,-110.96,-6.08,-269.04
518833.2177,307.379,-107.543,978.44,-1417.5,-5538.75,1006.25,-88.16,-6.08,-244.72
518833.2677,321.348,-105.164,973.377,-752.5,-2310.0,253.75,-121.6,4.56,-253.84
518833.3177,311.588,-105.652,976.183,-1408.75,-1198.75,-78.75,-86.64,-13.68,-262.96
518833.3677,293.959,-106.811,979.111,-1303.75,-3561.25,-1583.75,-104.88,-7.6,-267.52
518833.4177,306.83,-106.75,981.49,-936.25,-4672.5,-2660.0,-95.76,-6.08,-261.44
518833.4677,306.403,-92.049,976.427,-1951.25,-4567.5,-3605.0,-89.68,-25.84,-258.4
518833.5177,306.708,-102.663,977.098,-3176.25,-4191.25,-1968.75,-98.8,-7.6,-255.36
518833.5677,305.061,-105.225,974.963,-1837.5,-4646.25,-201.25,-92.72,-7.6,-270.56
518833.6177,308.294,-101.443,981.734,-831.25,-4611.25,1373.75,-95.76,-13.68,-262.96
518833.6677,306.281,-100.589,976.305,-1163.75,-5740.0,778.75,-107.92,-13.68,-246.24
518833.7177,315.675,-98.881,973.438,-1627.5,-5705.0,253.75,-103.36,-4.56,-269.04
518833.7678,318.908,-107.97,977.464,-1478.75,-5197.5,-446.25,-100.32,4.56,-258.4
518833.8177,316.224,-101.626,972.645,-385.0,-4156.25,-1268.75,-100.32,-4.56,-258.4
518833.8678,305.854,-86.01,974.963,-1426.25,-4025.0,-2003.75,-89.68,3.04,-253.84
518833.9177,305.915,-93.757,976.122,-2283.75,-4383.75,-1478.75,-117.04,-12.16,-267.52
518833.9677,311.832,-96.929,980.27,-1627.5,-4130.0,201.25,-94.24,-10.64,-255.36
518834.0177,305.305,-92.354,977.525,-2021.25,-4970.0,2721.25,-94.24,-21.28,-256.88
518834.0677,311.893,-94.672,974.17,-1916.25,-4856.25,3045.0,-89.68,0.0,-266.0
518834.1177,305.305,-108.458,976.549,-2143.75,-4865.0,2966.25,-89.68,-9.12,-269.04
518834.1677,313.296,-102.968,975.939,-1426.25,-5416.25,621.25,-110.96,-12.16,-262.96
518834.2177,315.492,-97.051,973.194,-1645.0,-5153.75,-586.25,-88.16,-16.72,-261.44
518834.2677,316.407,-95.648,975.329,-2108.75,-4690.0,-752.5,-104.88,-13.68,-259.92
518834.3177,316.041,-96.868,971.425,-2143.75,-4550.0,1373.75,-98.8,-28.88,-264.48
518834.3677,310.002,-95.77,976.122,-2030.0,-3526.25,1750.0,-101.84,-7.6,-262.96
518834.4177,296.399,-105.225,980.636,-1583.75,-2992.5,1811.25,-112.48,9.12,-273.6
518834.4677,290.726,-100.711,982.954,-1855.0,-4007.5,1435.0,-94.24,1.52,-266.0
518834.5177,303.048,-107.604,975.268,-3080.0,-6361.25,700.0,-88.16,-22.8,-267.52
518834.5677,328.18,-120.231,974.902,-1128.75,-4777.5,1382.5,-95.76,-7.6,-246.24
518834.6177,313.601,-97.844,973.316,-498.75,-2931.25,752.5,-123.12,1.52,-253.84
518834.6677,306.281,-95.526,973.926,-2870.0,-3132.5,122.5,-88.16,-7.6,-249.28
518834.7177,304.085,-110.288,977.525,-2616.25,-3360.0,1128.75,-106.4,-15.2,-266.0
518834.7677,307.745,-108.702,978.379,-1242.5,-3211.25,2633.75,-98.8,9.12,-256.88
518834.8177,299.937,-110.41,979.721,-2231.25,-3981.25,2546.25,-100.32,-15.2,-252.32
518834.8677,303.292,-110.715,979.538,-1793.75,-3692.5,1566.25,-85.12,-15.2,-259.92
518834.9177,300.059,-111.02,978.135,-2371.25,-4401.25,918.75,-88.16,4.56,-267.52
518834.9677,305.122,-117.242,976.244,-1758.75,-4970.0,245.0,-97.28,-13.68,-266.0
518835.0177,308.538,-110.105,974.292,-980.0,-4392.5,26.25,-98.8,-15.2,-253.84
518835.0677,308.111,-101.443,975.207,-1925.0,-3920.0,-262.5,-91.2,-10.64,-253.84
518835.1177,301.279,-107.36,978.684,-2082.5,-3596.25,-43.75,-103.36,-16.72,-262.96
518835.1677,304.573,-109.739,977.464,-1417.5,-3762.5,1338.75,-92.72,-10.64,-249.28
518835.2177,296.277,-110.837,980.758,-1513.75,-3403.75,1207.5,-85.12,0.0,-276.64
518835.2677,296.521,-109.19,976.976,-1400.0,-3377.5,1041.25,-106.4,-10.64,-273.6
518835.3177,295.85,-111.874,978.867,-1995.0,-4243.75,595.0,-89.68,-4.56,-266.0
518835.3677,297.375,-116.693,979.172,-1828.75,-4532.5,122.5,-92.72,9.12,-255.36
518835.4177,298.168,-104.859,977.952,-166.25,-3325.0,-1076.25,-94.24,-7.6,-279.68
518835.4677,293.837,-95.282,976.061,-2126.25,-3745.0,-1391.25,-77.52,-9.12,-264.48
518835.5177,291.458,-100.955,979.904,-2222.5,-3885.0,-17.5,-83.6,-9.12,-264.48
518835.5677,291.824,-110.471,983.381,-1120.0,-3858.75,2756.25,-92.72,-10.64,-270.56
518835.6177,285.541,-103.456,981.795,-1583.75,-5626.25,2100.0,-92.72,-10.64,-264.48
518835.6677,296.216,-111.691,980.697,-2065.0,-6247.5,761.25,-89.68,-10.64,-273.6
518835.7177,298.168,-111.325,976.61,-1933.75,-5652.5,332.5,-98.8,0.0,-258.4
518835.7677,299.693,-116.998,976.854,-1330.0,-5416.25,297.5,-98.8,-10.64,-267.52
518835.8177,303.963,-108.275,975.146,-918.75,-5180.0,-210.0,-88.16,-4.56,-258.4
518835.8677,304.085,-103.029,974.536,-1811.25,-3465.0,-840.0,-107.92,-4.56,-266.0
518835.9177,293.471,-105.042,978.623,-2301.25,-3657.5,78.75,-92.72,-4.56,-262.96
518835.9677,297.497,-109.007,979.111,-1470.0,-4077.5,1995.0,-103.36,-6.08,-262.96
518836.0177,293.959,-110.044,979.599,-1487.5,-4147.5,2380.0,-92.72,-4.56,-259.92
518836.0677,295.911,-110.715,980.697,-1365.0,-4121.25,1356.25,-100.32,15.2,-252.32
518836.1178,298.656,-108.885,977.464,-2485.0,-4637.5,227.5,-86.64,-4.56,-262.96
518836.1677,298.107,-119.011,976.488,-2213.75,-4856.25,315.0,-83.6,-13.68,-267.52
518836.2177,301.096,-110.41,981.185,332.5,-2747.5,-262.5,-104.88,-4.56,-261.44
518836.2677,285.663,-95.038,978.989,-1706.25,-3360.0,-621.25,-89.68,9.12,-255.36
518836.3177,290.909,-108.824,980.331,-2415.0,-4086.25,43.75,-89.68,-22.8,-279.68
518836.3677,292.19,-111.996,985.516,-1365.0,-4138.75,2572.5,-94.24,0.0,-275.12
518836.4177,285.602,-108.275,981.307,-1531.25,-4628.75,2563.75,-100.32,-9.12,-273.6
518836.4677,297.314,-117.303,982.954,-2030.0,-5521.25,1251.25,-88.16,-7.6,-264.48
518836.5177,293.959,-111.874,978.806,-1793.75,-4418.75,490.0,-100.32,-4.56,-259.92
518836.5677,290.787,-119.072,979.965,-1470.0,-4847.5,-210.0,-82.08,-19.76,-261.44
518836.6177,300.547,-108.031,977.22,-936.25,-4558.75,-682.5,-89.68,-3.04,-256.88
518836.6677,298.168,-102.358,976.427,-1155.0,-3631.25,-385.0,-103.36,-7.6,-273.6
518836.7177,286.7,-104.188,984.357,-1933.75,-3937.5,428.75,-100.32,10.64,-259.92
518836.7677,285.541,-112.911,984.113,-1566.25,-4707.5,2100.0,-107.92,-12.16,-275.12
518836.8177,291.519,-109.434,979.66,-1575.0,-4305.0,1653.75,-86.64,3.04,-267.52
518836.8677,286.334,-113.826,982.71,-1207.5,-4497.5,428.75,-83.6,-19.76,-270.56
518836.9177,289.628,-106.445,980.148,-1758.75,-5022.5,245.0,-85.12,-6.08,-264.48
518836.9677,290.726,-116.815,979.233,-1785.0,-5267.5,306.25,-95.76,-7.6,-261.44
518837.0177,297.192,-112.606,980.88,376.25,-4068.75,26.25,-86.64,-4.56,-269.04
518837.0677,288.225,-93.574,979.111,-1636.25,-3955.0,-962.5,-89.68,-7.6,-278.16
518837.1177,285.785,-104.371,980.697,-2108.75,-4576.25,-358.75,-95.76,1.52,-275.12
518837.1677,289.384,-113.033,983.076,-1286.25,-4655.0,2607.5,-83.6,-16.72,-272.08
518837.2177,285.602,-108.336,985.821,-822.5,-4628.75,2528.75,-91.2,7.6,-238.64
518837.2677,290.787,-113.826,983.442,-1855.0,-5530.0,936.25,-79.04,4.56,-261.44
518837.3177,294.02,-112.789,980.636,-1671.25,-5477.5,-218.75,-106.4,-19.76,-266.0
518837.3677,292.007,-113.887,981.307,-1732.5,-5416.25,-218.75,-86.64,-13.68,-269.04
518837.4177,298.107,-109.19,973.926,-901.25,-5608.75,-350.0,-101.84,10.64,-253.84
518837.4677,301.645,-104.554,978.013,-1128.75,-4506.25,-822.5,-104.88,16.72,-270.56
518837.5177,291.397,-99.918,979.172,-1811.25,-4042.5,-1172.5,-107.92,0.0,-267.52
518837.5677,290.116,-103.7,980.27,-1968.75,-4550.0,-253.75,-89.68,0.0,-267.52
518837.6177,294.264,-105.164,976.671,-1697.5,-4497.5,1198.75,-92.72,-6.08,-267.52
518837.6677,297.07,-109.434,981.185,-1146.25,-4383.75,1592.5,-106.4,-4.56,-261.44
518837.7177,294.142,-104.005,978.562,-1662.5,-4217.5,848.75,-85.12,0.0,-272.08
518837.7677,293.593,-111.752,980.453,-2327.5,-4331.25,61.25,-106.4,-16.72,-276.64
518837.8177,302.804,-117.059,981.002,-1277.5,-3281.25,-262.5,-86.64,3.04,-255.36
518837.8677,290.848,-98.82,976.671,-848.75,-2520.0,-297.5,-103.36,-3.04,-261.44
518837.9177,282.796,-99.674,982.283,-2135.0,-3902.5,-481.25,-94.24,-3.04,-256.88
518837.9677,285.48,-102.663,981.429,-2555.0,-4033.75,708.75,-104.88,-9.12,-262.96
518838.0177,284.382,-108.641,985.028,-1190.0,-3963.75,2108.75,-92.72,-10.64,-253.84
518838.0677,282.979,-110.044,983.564,-2126.25,-5503.75,1478.75,-101.84,15.2,-276.64
518838.1177,291.153,-113.46,982.161,-1872.5,-5092.5,831.25,-80.56,-9.12,-249.28
518838.1677,283.04,-114.924,983.015,-1470.0,-5337.5,787.5,-89.68,-6.08,-270.56
518838.2177,289.262,-112.362,981.734,-1137.5,-5993.75,-192.5,-100.32,-12.16,-267.52
518838.2677,299.022,-106.384,979.05,-796.25,-5005.0,-1268.75,-100.32,1.52,-270.56
518838.3177,290.116,-100.589,978.013,-2161.25,-4340.0,-1610.0,-100.32,-6.08,-272.08
518838.3677,289.872,-105.225,981.673,-2065.0,-4576.25,0.0,-91.2,13.68,-270.56
518838.4177,290.177,-104.981,979.355,-1338.75,-5363.75,1487.5,-95.76,-12.16,-261.44
518838.4678,293.654,-108.275,978.379,-1776.25,-4725.0,1321.25,-83.6,-10.64,-267.52
518838.5177,290.909,-103.517,979.233,-1382.5,-4497.5,1172.5,-103.36,0.0,-249.28
518838.5677,289.323,-112.362,977.159,-2712.5,-5503.75,-96.25,-92.72,3.04,-272.08
518838.6177,304.939,-119.682,981.734,-1461.25,-5206.25,402.5,-98.8,7.6,-269.04
518838.6677,291.397,-98.759,977.525,-752.5,-3141.25,122.5,-94.24,-4.56,-273.6
518838.7177,289.506,-105.103,979.965,-2511.25,-4208.75,-166.25,-89.68,-24.32,-267.52
518838.7677,283.345,-112.362,982.222,-1785.0,-4016.25,332.5,-95.76,0.0,-269.04
518838.8177,285.358,-107.299,980.453,-1461.25,-4235.0,1653.75,-89.68,-7.6,-267.52
518838.8677,285.358,-112.24,980.514,-1776.25,-5416.25,2231.25,-98.8,4.56,-266.0
518838.9177,291.336,-113.277,982.283,-1295.0,-5276.25,1356.25,-79.04,-3.04,-267.52
518838.9677,289.262,-114.375,980.514,-1627.5,-5293.75,367.5,-95.76,-12.16,-262.96
518839.0177,296.582,-113.094,977.403,-612.5,-5390.0,-498.75,-76.0,-3.04,-264.48
518839.0677,296.094,-100.955,977.891,-612.5,-3858.75,-682.5,-103.36,-10.64,-259.92
518839.1177,290.787,-98.576,979.233,-1111.25,-3692.5,-201.25,-88.16,-10.64,-269.04
518839.1677,283.284,-101.443,983.381,-1898.75,-4366.25,752.5,-107.92,-16.72,-258.4
518839.2177,291.092,-103.883,980.575,-1452.5,-5092.5,1662.5,-97.28,-6.08,-270.56
518839.2677,291.519,-103.334,980.575,-1811.25,-4952.5,1820.0,-95.76,4.56,-246.24
518839.3177,288.164,-105.286,979.233,-1916.25,-5066.25,1680.0,-88.16,-27.36,-267.52
518839.3677,292.678,-112.24,977.891,-2108.75,-5495.0,813.75,-91.2,-4.56,-269.04
518839.4177,306.769,-115.778,980.087,-1408.75,-4935.0,700.0,-100.32,-18.24,-255.36
518839.4677,286.151,-97.844,978.928,-1067.5,-3325.0,-367.5,-91.2,9.12,-269.04
518839.5177,280.295,-99.979,979.782,-2432.5,-4383.75,-997.5,-95.76,4.56,-253.84
518839.5677,283.101,-105.774,983.259,-2721.25,-4655.0,122.5,-88.16,-27.36,-270.56
518839.6177,289.75,-109.373,983.076,-1933.75,-5320.0,2143.75,-86.64,-7.6,-278.16
518839.6677,283.101,-106.994,980.697,-2257.5,-5880.0,2520.0,-92.72,7.6,-244.72
518839.7177,294.752,-115.778,982.1,-1968.75,-6291.25,1548.75,-109.44,-9.12,-264.48
518839.7677,293.593,-114.497,978.928,-2240.0,-6527.5,1093.75,-91.2,-10.64,-264.48
518839.8177,294.142,-119.438,976.366,-2082.5,-6930.0,210.0,-89.68,1.52,-256.88
518839.8677,310.856,-116.327,976.488,-1032.5,-5941.25,455.0,-103.36,10.64,-262.96
518839.9177,304.085,-108.641,976.0,-1321.25,-5092.5,-192.5,-92.72,-13.68,-264.48
518839.9677,300.486,-109.495,977.769,-2423.75,-5040.0,-542.5,-104.88,-9.12,-262.96
518840.0177,302.072,-114.619,976.732,-1890.0,-5022.5,971.25,-91.2,-15.2,-256.88
518840.0677,299.144,-114.253,977.647,-1802.5,-5215.0,1505.0,-101.84,-24.32,-267.52
518840.1177,298.107,-115.9,976.549,-1610.0,-5048.75,1137.5,-101.84,-10.64,-252.32
518840.1677,301.95,-109.556,976.671,-2520.0,-5888.75,647.5,-106.4,-4.56,-267.52
518840.2177,302.072,-128.466,976.61,-2161.25,-5643.75,288.75,-106.4,-13.68,-266.0
518840.2677,308.599,-114.253,972.523,-183.75,-5267.5,-1128.75,-85.12,0.0,-264.48
518840.3177,302.682,-102.785,974.231,-1898.75,-4961.25,-1583.75,-89.68,-3.04,-262.96
518840.3677,300.242,-116.571,976.305,-2283.75,-4865.0,-603.75,-100.32,-7.6,-269.04
518840.4177,299.693,-117.669,978.196,-1767.5,-5206.25,796.25,-103.36,-12.16,-244.72
518840.4677,301.645,-114.497,976.732,-1216.25,-5153.75,997.5,-100.32,-12.16,-261.44
518840.5177,306.159,-122.549,977.952,-1487.5,-5372.5,-630.0,-82.08,9.12,-262.96
518840.5677,303.841,-113.155,979.172,-1277.5,-5215.0,-350.0,-121.6,1.52,-258.4
518840.6177,309.209,-115.595,974.963,-1321.25,-5390.0,262.5,-83.6,-13.68,-252.32
518840.6677,309.575,-110.837,974.658,-918.75,-5145.0,-17.5,-86.64,-6.08,-264.48
518840.7177,308.599,-102.114,974.78,-1163.75,-4812.5,-682.5,-92.72,-3.04,-255.36
518840.7677,307.44,-104.92,976.976,-2038.75,-4987.5,-796.25,-101.84,-12.16,-261.44
518840.8178,304.512,-112.484,976.61,-1881.25,-5197.5,787.5,-103.36,-10.64,-255.36
518840.8677,312.198,-110.471,973.499,-1268.75,-5302.5,1732.5,-109.44,4.56,-255.36
518840.9177,307.501,-113.155,974.475,-1102.5,-4725.0,805.0,-110.96,-12.16,-256.88
518840.9677,306.403,-106.933,975.451,-1872.5,-4830.0,0.0,-85.12,-4.56,-266.0
518841.0177,307.44,-115.046,974.719,-2161.25,-5127.5,-8.75,-107.92,-15.2,-258.4
518841.0677,318.664,-121.756,974.963,-1365.0,-5022.5,735.0,-89.68,-10.64,-250.8
518841.1177,311.527,-100.528,972.828,-1268.75,-3666.25,26.25,-110.96,-9.12,-269.04
518841.1677,302.56,-108.58,977.647,-2485.0,-3911.25,-236.25,-100.32,-3.04,-270.56
518841.2177,303.902,-112.545,974.414,-2187.5,-3902.5,918.75,-86.64,-12.16,-255.36
518841.2677,302.133,-111.996,975.573,-1513.75,-3911.25,2432.5,-107.92,-10.64,-261.44
518841.3177,304.451,-113.399,977.403,-2371.25,-4821.25,2450.0,-94.24,-4.56,-259.92
518841.3677,306.83,-118.767,976.366,-1715.0,-4663.75,1557.5,-103.36,-13.68,-252.32
518841.4177,305.854,-122.976,975.939,-1540.0,-4768.75,1242.5,-95.76,-15.2,-264.48
518841.4677,311.039,-122.732,973.438,-953.75,-5005.0,192.5,-106.4,-9.12,-262.96
518841.5177,314.821,-110.532,970.815,-1286.25,-4121.25,-857.5,-86.64,-3.04,-252.32
518841.5677,304.512,-111.508,976.915,-2135.0,-3482.5,-551.25,-104.88,9.12,-261.44
518841.6177,301.035,-117.486,978.074,-1548.75,-4095.0,1137.5,-100.32,-10.64,-266.0
518841.6677,303.963,-110.776,975.634,-1452.5,-4042.5,1627.5,-79.04,0.0,-256.88
518841.7177,302.987,-116.815,976.366,-2003.75,-4252.5,1330.0,-94.24,-7.6,-259.92
518841.7677,301.706,-113.887,977.525,-1286.25,-4698.75,1487.5,-88.16,1.52,-270.56
518841.8177,301.279,-117.669,971.547,-2511.25,-4795.0,411.25,-110.96,4.56,-261.44
518841.8677,317.932,-124.684,977.525,-1837.5,-4996.25,393.75,-98.8,-3.04,-255.36
518841.9177,301.828,-109.434,974.597,-437.5,-2616.25,131.25,-91.2,4.56,-258.4
518841.9677,293.288,-106.506,975.817,-2056.25,-3701.25,-533.75,-106.4,-15.2,-259.92
518842.0177,297.619,-119.804,979.05,-1662.5,-3395.0,411.25,-91.2,6.08,-253.84
518842.0677,293.898,-108.946,981.551,-1155.0,-3762.5,1916.25,-94.24,12.16,-250.8
518842.1177,293.349,-112.728,978.318,-2196.25,-5005.0,1767.5,-85.12,-3.04,-250.8
518842.1677,300.791,-120.048,976.671,-1286.25,-5083.75,1102.5,-95.76,-13.68,-270.56
518842.2177,298.595,-117.669,977.83,-1820.0,-5145.0,201.25,-107.92,-7.6,-256.88
518842.2677,301.645,-123.281,976.488,-1006.25,-5993.75,-262.5,-104.88,-12.16,-258.4
518842.3177,308.477,-109.8,974.292,-665.0,-4786.25,-910.0,-95.76,0.0,-249.28
518842.3677,303.963,-103.822,974.658,-1706.25,-4296.25,-1295.0,-89.68,7.6,-258.4
518842.4177,298.534,-116.51,978.257,-1365.0,-5022.5,560.0,-91.2,-9.12,-269.04
518842.4677,302.133,-109.19,979.782,-1330.0,-5320.0,1137.5,-94.24,-7.6,-247.76
518842.5177,301.401,-110.105,978.379,-1627.5,-4497.5,953.75,-85.12,-7.6,-270.56
518842.5677,296.704,-113.46,976.305,-1478.75,-5740.0,1758.75,-100.32,-6.08,-270.56
518842.6177,304.024,-113.033,973.499,-1898.75,-5932.5,1391.25,-85.12,-13.68,-270.56
518842.6677,318.908,-120.78,972.828,-1898.75,-5346.25,1085.0,-107.92,-4.56,-261.44
518842.7177,302.804,-109.983,973.499,-778.75,-2432.5,-17.5,-98.8,6.08,-261.44
518842.7677,292.251,-103.883,976.061,-1907.5,-3771.25,-323.75,-91.2,-12.16,-253.84
518842.8177,294.63,-114.802,981.185,-2773.75,-4086.25,428.75,-101.84,-7.6,-253.84
518842.8677,298.717,-116.754,981.795,-2038.75,-4357.5,1365.0,-118.56,9.12,-249.28
518842.9177,290.665,-109.068,979.965,-2415.0,-5276.25,2240.0,-85.12,7.6,-264.48
518842.9677,309.209,-121.39,974.414,-2152.5,-5591.25,1566.25,-103.36,-10.64,-264.48
518843.0177,305.488,-119.377,978.501,-1863.75,-5206.25,1487.5,-101.84,3.04,-253.84
518843.0677,305.854,-125.843,974.963,-1846.25,-5390.0,595.0,-100.32,7.6,-266.0
518843.1177,313.906,-117.791,973.499,-638.75,-4952.5,-113.75,-101.84,4.56,-267.52
518843.1678,307.074,-110.288,972.096,-1233.75,-4033.75,-901.25,-91.2,7.6,-264.48
518843.2177,303.536,-114.07,978.684,-2633.75,-4751.25,-323.75,-94.24,-13.68,-253.84
518843.2677,292.068,-121.024,984.296,-1723.75,-5801.25,1391.25,-85.12,-15.2,-262.96
518843.3177,303.536,-115.595,975.817,-1986.25,-6755.0,1776.25,-98.8,-4.56,-264.48
518843.3677,307.989,-121.817,973.438,-1706.25,-6833.75,1303.75,-88.16,0.0,-249.28
518843.4177,312.381,-117.852,971.242,-2030.0,-6116.25,1006.25,-100.32,6.08,-261.44
518843.4677,317.078,-124.562,968.558,-1942.5,-5083.75,542.5,-107.92,-4.56,-250.8
518843.5177,328.241,-130.479,968.863,-691.25,-3701.25,341.25,-95.76,-3.04,-255.36
518843.5677,307.257,-107.421,973.133,-971.25,-2047.5,-612.5,-101.84,-3.04,-250.8
518843.6177,300.547,-115.595,975.817,-2248.75,-3150.0,-691.25,-88.16,-12.16,-253.84
518843.6677,299.937,-118.584,982.1,-1601.25,-3701.25,857.5,-106.4,6.08,-256.88
518843.7177,295.606,-113.826,978.196,-1058.75,-4357.5,1942.5,-69.92,-12.16,-264.48
518843.7677,310.551,-120.475,973.438,-1968.75,-5433.75,1548.75,-95.76,-9.12,-252.32
518843.8177,311.954,-120.78,971.974,-1645.0,-4681.25,883.75,-100.32,-18.24,-275.12
518843.8677,307.989,-123.281,974.292,-2310.0,-4287.5,420.0,-95.76,4.56,-255.36
518843.9177,299.51,-127.795,977.281,-953.75,-4768.75,455.0,-109.44,-3.04,-252.32
518843.9677,307.562,-112.057,974.719,-1268.75,-4497.5,-341.25,-83.6,-6.08,-264.48
518844.0177,300.669,-113.582,976.427,-2406.25,-4270.0,-201.25,-112.48,-12.16,-270.56
518844.0677,303.536,-121.329,976.61,-2178.75,-4821.25,997.5,-92.72,4.56,-259.92
518844.1177,304.207,-117.181,976.122,-2003.75,-4515.0,1793.75,-109.44,15.2,-269.04
518844.1677,301.523,-126.88,974.658,-2038.75,-4462.5,1688.75,-97.28,3.04,-269.04
518844.2177,298.961,-120.414,975.878,-1575.0,-5433.75,1058.75,-106.4,4.56,-253.84
518844.2677,307.684,-128.344,972.584,-2668.75,-5398.75,656.25,-94.24,4.56,-249.28
518844.3177,311.1,-135.359,975.085,-1557.5,-5827.5,778.75,-83.6,19.76,-259.92
518844.3677,308.904,-110.044,972.889,-988.75,-4095.0,-831.25,-91.2,4.56,-258.4
518844.4177,303.719,-112.362,974.353,-2835.0,-4471.25,-1128.75,-110.96,-6.08,-253.84
518844.4677,301.706,-120.902,976.793,-1811.25,-4261.25,1618.75,-101.84,-3.04,-269.04
518844.5177,304.878,-122.915,976.732,-1207.5,-4716.25,3228.75,-101.84,1.52,-266.0
518844.5677,298.29,-123.464,978.867,-2135.0,-5425.0,2065.0,-91.2,22.8,-264.48
518844.6177,313.967,-127.063,973.438,-1601.25,-5372.5,87.5,-86.64,4.56,-256.88
518844.6677,306.22,-129.564,974.475,-1960.0,-4926.25,-148.75,-123.12,7.6,-249.28
518844.7177,307.44,-130.418,972.645,-980.0,-5110.0,288.75,-94.24,3.04,-253.84
518844.7677,312.381,-116.754,971.608,-1163.75,-4672.5,-428.75,-85.12,-18.24,-259.92
518844.8177,309.331,-116.266,972.462,-1942.5,-4410.0,-1032.5,-88.16,1.52,-252.32
518844.8677,302.316,-120.719,976.305,-1846.25,-4681.25,192.5,-94.24,-3.04,-269.04
518844.9177,309.697,-120.841,974.658,-1732.5,-5145.0,901.25,-91.2,4.56,-266.0
518844.9677,303.048,-126.636,974.17,-1933.75,-5311.25,1303.75,-104.88,-12.16,-255.36
518845.0177,307.928,-122.305,975.024,-1207.5,-5967.5,770.0,-94.24,1.52,-256.88
518845.0677,313.235,-121.451,970.205,-2196.25,-5941.25,-218.75,-91.2,-7.6,-270.56
518845.1177,316.529,-132.37,972.096,-2073.75,-6037.5,-35.0,-107.92,7.6,-262.96
518845.1677,321.104,-118.218,968.314,-105.0,-3552.5,-131.25,-91.2,1.52,-264.48
518845.2177,308.599,-111.325,969.717,-1767.5,-3841.25,17.5,-101.84,-4.56,-262.96
518845.2677,311.588,-120.292,973.499,-2222.5,-3920.0,446.25,-94.24,7.6,-261.44
518845.3177,307.867,-124.806,978.257,-1365.0,-4392.5,1968.75,-95.76,3.04,-259.92
518845.3677,305.305,-120.109,971.486,-1723.75,-4558.75,1758.75,-115.52,3.04,-256.88
518845.4177,313.906,-132.004,975.024,-1688.75,-5057.5,971.25,-86.64,6.08,-270.56
518845.4677,313.906,-129.503,970.754,-1251.25,-4462.5,936.25,-92.72,0.0,-252.32
518845.5178,310.856,-128.954,974.353,-1058.75,-4838.75,-306.25,-86.64,18.24,-255.36
518845.5677,314.516,-118.401,970.998,-735.0,-4646.25,-1146.25,-100.32,-3.04,-261.44
518845.6177,315.98,-113.887,970.205,-1330.0,-3710.0,-1260.0,-86.64,0.0,-258.4
518845.6677,303.902,-114.802,975.207,-2038.75,-3981.25,-332.5,-104.88,-3.04,-273.6
518845.7177,303.414,-120.231,975.573,-1758.75,-4305.0,1146.25,-89.68,15.2,-267.52
518845.7677,310.49,-119.499,971.73,-1942.5,-4830.0,1566.25,-114.0,-4.56,-255.36
518845.8177,306.22,-123.83,973.255,-1338.75,-4628.75,1522.5,-104.88,-4.56,-259.92
518845.8677,310.734,-118.584,974.841,-1942.5,-4681.25,1330.0,-106.4,1.52,-256.88
518845.9177,308.416,-130.662,973.194,-2091.25,-5477.5,166.25,-106.4,1.52,-258.4
518845.9677,321.165,-126.758,970.022,-26.25,-3683.75,-288.75,-95.76,19.76,-241.68
518846.0177,299.754,-110.593,974.841,-1557.5,-3482.5,-691.25,-106.4,0.0,-266.0
518846.0677,303.658,-118.584,977.586,-2668.75,-4497.5,-393.75,-85.12,3.04,-273.6
518846.1177,301.462,-125.233,980.27,-2003.75,-4987.5,1513.75,-91.2,3.04,-267.52
518846.1677,298.717,-121.512,979.66,-1776.25,-5871.25,2598.75,-100.32,3.04,-246.24
518846.2177,314.76,-133.102,970.266,-1785.0,-7026.25,1881.25,-107.92,-10.64,-262.96
518846.2677,316.59,-128.466,970.083,-1680.0,-6457.5,717.5,-92.72,-16.72,-259.92
518846.3177,316.468,-133.712,968.009,-1338.75,-5661.25,-262.5,-98.8,0.0,-246.24
518846.3677,323.117,-129.442,969.961,-411.25,-5591.25,-463.75,-106.4,7.6,-250.8
518846.4177,320.067,-115.9,967.826,-332.5,-3902.5,-822.5,-92.72,6.08,-262.96
518846.4677,310.49,-115.9,973.072,-1986.25,-4322.5,-481.25,-107.92,-10.64,-250.8
518846.5177,311.405,-120.902,975.512,-1645.0,-4576.25,358.75,-86.64,-7.6,-261.44
518846.5677,309.636,-115.961,973.072,-2100.0,-4707.5,1216.25,-98.8,0.0,-266.0
518846.6177,315.492,-126.27,969.534,-2275.0,-4488.75,1478.75,-106.4,-9.12,-269.04
518846.6677,314.455,-126.148,968.07,-1977.5,-4637.5,2065.0,-97.28,1.52,-252.32
518846.7177,312.808,-135.115,971.486,-2196.25,-4803.75,262.5,-100.32,19.76,-269.04
518846.7677,319.396,-137.982,975.573,-1522.5,-5258.75,-813.75,-100.32,7.6,-267.52
518846.8177,308.233,-113.277,970.998,-105.0,-4138.75,-1400.0,-112.48,-3.04,-252.32
518846.8677,307.013,-112.606,974.902,-2493.75,-5013.75,-1277.5,-106.4,10.64,-250.8
518846.9177,306.952,-121.451,977.281,-2283.75,-5836.25,1076.25,-83.6,3.04,-256.88
518846.9677,308.233,-125.965,973.804,-1146.25,-5696.25,3631.25,-94.24,-4.56,-266.0
518847.0177,308.721,-122.549,976.976,-1741.25,-6798.75,2695.0,-86.64,0.0,-244.72
518847.0677,320.372,-132.126,975.756,-2003.75,-6536.25,131.25,-100.32,0.0,-253.84
518847.1177,314.577,-132.187,968.802,-2187.5,-6343.75,-1977.5,-100.32,1.52,-255.36
518847.1677,311.588,-130.906,976.671,-1583.75,-8505.0,-1925.0,-104.88,13.68,-255.36
518847.2177,329.034,-125.416,968.558,-315.0,-8006.25,-1592.5,-109.44,15.2,-270.56
518847.2677,323.117,-118.523,970.083,-612.5,-8662.5,-2257.5,-100.32,3.04,-235.6
518847.3177,330.925,-115.107,966.179,-1688.75,-7813.75,-1995.0,-101.84,-16.72,-255.36
518847.3677,334.707,-130.357,971.913,-1505.0,-10193.75,-2458.75,-97.28,1.52,-252.32
518847.4177,319.579,-126.819,970.327,-297.5,-12687.5,-3587.5,-106.4,-9.12,-246.24
518847.4677,331.779,-104.92,970.022,-1233.75,-16196.25,-5810.0,-112.48,3.04,-255.36
518847.5177,356.301,-103.456,957.273,-4217.5,-20186.25,-6588.75,-110.96,-6.08,-243.2
518847.5677,377.224,-114.558,953.552,-3972.5,-20781.25,-5608.75,-120.08,0.0,-231.04
518847.6177,376.431,-113.826,955.077,-1443.75,-18663.75,-3937.5,-123.12,1.52,-238.64
518847.6677,385.398,-114.131,948.855,-665.0,-19818.75,-2380.0,-126.16,-7.6,-243.2
518847.7177,398.696,-111.874,940.498,787.5,-18882.5,1041.25,-97.28,-12.16,-232.56
518847.7677,441.213,-116.022,930.433,-201.25,-12355.0,3071.25,-127.68,-6.08,-244.72
518847.8177,465.247,-104.005,919.331,-446.25,-5888.75,2607.5,-129.2,-13.68,-223.44
518847.8679,420.168,-113.46,932.751,-2336.25,-2187.5,717.5,-136.8,-6.08,-224.96
518847.9177,434.259,-116.205,934.093,-2038.75,-2835.0,481.25,-136.8,-6.08,-228.0
518847.9677,426.268,-119.56,932.934,-1330.0,-673.75,2012.5,-124.64,-7.6,-238.64
518848.0177,428.769,-115.595,936.106,-26.25,-96.25,1951.25,-120.08,-19.76,-235.6
518848.0677,390.583,-115.534,944.463,-210.0,-3307.5,87.5,-127.68,0.0,-238.64
518848.1177,427.0,-112.179,931.592,-883.75,-5328.75,-183.75,-138.32,-4.56,-224.96
518848.1677,409.615,-119.255,940.071,236.25,-5705.0,341.25,-124.64,0.0,-229.52
518848.2177,410.896,-117.791,943.609,717.5,-5486.25,936.25,-132.24,0.0,-235.6
518848.2677,414.739,-99.857,937.509,752.5,-7210.0,-113.75,-123.12,-9.12,-231.04
518848.3177,420.839,-91.805,933.666,-1190.0,-8697.5,96.25,-121.6,-6.08,-224.96
518848.3677,433.893,-109.129,926.712,-1758.75,-8750.0,1470.0,-132.24,-19.76,-244.72
518848.4177,434.686,-108.763,932.324,1198.75,-4252.5,2021.25,-132.24,1.52,-238.64
518848.4677,440.298,-97.173,930.067,-341.25,-1198.75,288.75,-132.24,-13.68,-226.48
518848.5177,418.338,-106.201,931.165,-1146.25,901.25,-1190.0,-126.16,-7.6,-237.12
518848.5677,405.528,-98.393,943.426,-2143.75,-472.5,-332.5,-129.2,-7.6,-228.0
518848.6177,399.672,-100.589,943.975,-673.75,236.25,446.25,-129.2,-10.64,-231.04
518848.6677,408.517,-103.883,940.498,-245.0,-2318.75,323.75,-127.68,-7.6,-237.12
518848.7177,409.676,-97.661,939.888,-1233.75,-1198.75,-1067.5,-124.64,-22.8,-237.12
518848.7677,404.674,-105.713,943.609,-1365.0,96.25,-1837.5,-112.48,-16.72,-241.68
518848.8177,406.077,-94.611,943.304,-813.75,-157.5,-2730.0,-147.44,-7.6,-232.56
518848.8677,386.008,-88.999,952.942,-1426.25,-691.25,-2642.5,-118.56,-16.72,-237.12
518848.9177,397.964,-84.302,950.502,-2152.5,-1233.75,-1487.5,-114.0,0.0,-229.52
518848.9677,379.176,-98.82,953.613,-1951.25,-2187.5,-481.25,-136.8,-16.72,-235.6
518849.0177,409.249,-90.646,943.182,-831.25,-3386.25,1426.25,-110.96,-13.68,-218.88
518849.0677,378.444,-91.5,953.003,-735.0,-3333.75,1566.25,-130.72,-16.72,-244.72
518849.1177,398.269,-91.5,945.988,-1111.25,-3272.5,1645.0,-121.6,-15.2,-232.56
518849.1677,386.374,-100.894,947.269,-1470.0,-2441.25,1155.0,-123.12,-12.16,-243.2
518849.2177,405.345,-101.138,951.966,787.5,-577.5,323.75,-117.04,-16.72,-253.84
518849.2677,369.111,-71.248,951.356,-1102.5,481.25,-665.0,-114.0,-15.2,-241.68
518849.3177,375.943,-81.984,954.467,-3001.25,-236.25,148.75,-130.72,-9.12,-241.68
518849.3677,362.157,-91.134,955.199,-2747.5,-1837.5,1610.0,-135.28,-13.68,-250.8
518849.4177,374.54,-88.877,957.273,-3080.0,350.0,2843.75,-114.0,-13.68,-241.68
518849.4677,358.009,-105.164,959.896,-1802.5,-218.75,3080.0,-110.96,-12.16,-249.28
518849.5177,364.902,-103.212,959.774,-883.75,-87.5,3237.5,-123.12,-18.24,-258.4
518849.5677,350.262,-102.358,964.593,-1426.25,-3176.25,2056.25,-110.96,-15.2,-247.76
518849.6177,357.46,-99.43,964.532,-1076.25,-3403.75,595.0,-101.84,-18.24,-249.28
518849.6677,360.876,-89.426,961.421,-2292.5,-2511.25,-1496.25,-115.52,-18.24,-258.4
518849.7177,359.351,-91.439,960.14,-2686.25,-2966.25,-1207.5,-103.36,-6.08,-258.4
518849.7677,350.628,-99.308,962.031,-2240.0,-3036.25,-96.25,-112.48,-10.64,-264.48
518849.8177,350.994,-98.759,964.532,-1496.25,-2642.5,892.5,-107.92,-9.12,-238.64
518849.8677,347.395,-96.502,966.972,-1216.25,-3491.25,1190.0,-115.52,-21.28,-267.52
518849.9177,349.469,-98.942,958.188,-2257.5,-4121.25,691.25,-114.0,-19.76,-262.96
518849.9677,366.244,-102.663,965.935,-1120.0,-4532.5,245.0,-115.52,-10.64,-253.84
518850.0177,358.68,-94.062,964.288,-848.75,-2423.75,376.25,-106.4,4.56,-237.12
518850.0677,342.698,-87.352,963.129,-2012.5,-2555.0,411.25,-123.12,-16.72,-240.16
518850.1177,343.247,-98.82,966.179,-2047.5,-2817.5,358.75,-114.0,-15.2,-243.2
518850.1677,338.489,-97.905,973.255,-2213.75,-2721.25,665.0,-110.96,-13.68,-261.44
518850.2178,335.927,-99.369,967.765,-1837.5,-4655.0,1163.75,-126.16,-18.24,-258.4
518850.2677,342.698,-101.504,970.51,-1408.75,-5197.5,1487.5,-100.32,0.0,-243.2
518850.3177,338.367,-97.905,959.591,-1653.75,-5617.5,1487.5,-106.4,3.04,-259.92
518850.3677,350.994,-103.029,965.508,-691.25,-5127.5,761.25,-110.96,-18.24,-238.64
518850.4177,346.907,-97.112,964.227,-183.75,-4305.0,-35.0,-114.0,-24.32,-253.84
518850.4677,346.297,-78.934,962.092,-2222.5,-3421.25,-1592.5,-132.24,-15.2,-246.24
518850.5177,338.245,-93.94,968.436,-2992.5,-4348.75,-533.75,-94.24,0.0,-266.0
518850.5677,341.905,-87.169,967.46,-1680.0,-5416.25,603.75,-107.92,-25.84,-235.6
518850.6177,344.345,-92.903,962.58,-2511.25,-5066.25,2345.0,-107.92,-4.56,-255.36
518850.6677,342.942,-95.892,965.02,-2493.75,-4891.25,2441.25,-104.88,-18.24,-247.76
518850.7177,348.554,-104.371,957.7,-2800.0,-6002.5,2187.5,-110.96,-15.2,-252.32
518850.7677,364.597,-108.519,963.068,-1995.0,-4366.25,1828.75,-109.44,-15.2,-253.84
518850.8177,341.661,-95.953,966.728,-1645.0,-3036.25,472.5,-104.88,-18.24,-243.2
518850.8677,341.112,-97.844,966.789,-3097.5,-3885.0,-262.5,-98.8,-13.68,-262.96
518850.9177,338.306,-104.066,970.266,-2861.25,-3797.5,96.25,-110.96,-12.16,-253.84
518850.9677,331.352,-102.053,970.144,-1566.25,-4795.0,1933.75,-103.36,-6.08,-259.92
518851.0177,337.818,-103.822,968.497,-2590.0,-6457.5,2555.0,-123.12,-12.16,-256.88
518851.0677,348.066,-108.885,966.179,-2126.25,-6405.0,2896.25,-89.68,-18.24,-247.76
518851.1177,346.419,-111.569,962.214,-2642.5,-6072.5,3053.75,-124.64,-16.72,-258.4
518851.1677,352.214,-119.255,959.957,-2248.75,-5591.25,2152.5,-101.84,3.04,-272.08
