TimeStamp,ax,ay,az,gx,gy,gz,mx,my,mz
604176.6967,174.582,5.429,1006.5,-1382.5,-3500.0,-1338.75,-48.64,-214.32,-351.12
604176.7467,172.02,2.928,1009.001,-2170.0,-3981.25,-61.25,-31.92,-223.44,-340.48
604176.7967,168.848,-3.111,1009.001,-1715.0,-4383.75,2817.5,-25.84,-228.0,-340.48
604176.8467,171.532,-4.453,1008.33,-1802.5,-4725.0,2248.75,-42.56,-208.24,-340.48
604176.8967,169.763,-10.187,1006.805,-1820.0,-4016.25,595.0,-38.0,-209.76,-334.4
604176.9467,165.127,-2.196,1008.635,-1286.25,-3963.75,192.5,-33.44,-208.24,-334.4
604176.9968,168.36,-6.588,1006.805,-3237.5,-5337.5,603.75,-45.6,-218.88,-338.96
604177.0467,187.148,-21.411,1012.112,-490.0,-4541.25,787.5,-44.08,-223.44,-342.0
604177.0967,173.911,6.161,1010.465,-533.75,-2493.75,43.75,-28.88,-217.36,-351.12
604177.1467,163.053,-1.586,1006.683,-2458.75,-5267.5,1032.5,-22.8,-224.96,-334.4
604177.1967,174.643,-7.015,1010.221,-1820.0,-5013.75,1960.0,-31.92,-217.36,-326.8
604177.2467,172.142,-5.856,1010.831,-1347.5,-3823.75,1750.0,-41.04,-224.96,-343.52
604177.2967,172.081,-8.723,1008.147,-2738.75,-5276.25,1330.0,-51.68,-220.4,-334.4
604177.3467,176.229,-7.625,1010.343,-1855.0,-4742.5,638.75,-50.16,-223.44,-351.12
604177.3967,169.946,-6.527,1007.964,-2030.0,-5057.5,1373.75,-51.68,-211.28,-334.4
604177.4467,175.314,-11.407,1008.94,-1715.0,-5118.75,962.5,-30.4,-224.96,-348.08
604177.4967,175.985,-6.588,1006.744,-1137.5,-4322.5,1190.0,-34.96,-220.4,-328.32
604177.5467,169.824,-4.087,1005.036,-1793.75,-4112.5,1137.5,-41.04,-209.76,-348.08
604177.5967,170.983,-3.416,1012.356,-2275.0,-3176.25,953.75,-34.96,-203.68,-319.2
604177.6467,155.855,-11.407,1015.101,-2546.25,-3570.0,1321.25,-25.84,-214.32,-346.56
604177.6967,139.385,-22.936,1019.371,-4830.0,-4182.5,-183.75,-21.28,-220.4,-335.92
604177.7467,139.507,-40.626,1018.273,-2196.25,-6711.25,-1190.0,-33.44,-226.48,-337.44
604177.7967,152.378,-14.701,1013.515,-1470.0,-8277.5,-1120.0,-41.04,-203.68,-343.52
604177.8467,166.652,-14.823,1007.659,-3745.0,-10342.5,-866.25,-30.4,-211.28,-348.08
604177.8967,200.08,-34.709,1002.596,-665.0,-9152.5,-420.0,-24.32,-220.4,-354.16
604177.9467,200.568,-24.949,992.836,-1706.25,-8478.75,-4585.0,-50.16,-220.4,-342.0
604177.9967,197.091,-30.988,999.424,866.25,-6378.75,-4103.75,-51.68,-220.4,-349.6
604178.0468,194.163,-1.281,1000.522,4725.0,-4690.0,-385.0,-28.88,-199.12,-325.28
604178.0967,189.832,25.315,1006.561,5180.0,-3867.5,-1793.75,-36.48,-217.36,-337.44
604178.1468,179.035,8.906,1006.622,1531.25,-5617.5,-1557.5,-41.04,-214.32,-343.52
604178.1967,186.355,38.247,1007.659,1881.25,-6711.25,-1085.0,-51.68,-221.92,-337.44
604178.2467,188.673,29.219,1006.5,-157.5,-7183.75,-1006.25,-39.52,-212.8,-343.52
604178.2967,196.664,26.962,999.851,350.0,-6851.25,2415.0,-44.08,-228.0,-323.76
604178.3467,199.104,28.487,996.252,-1942.5,-6965.0,3141.25,-38.0,-226.48,-338.96
604178.3967,216.733,9.699,994.544,-4112.5,-7376.25,1968.75,-51.68,-232.56,-340.48
604178.4467,208.01,-5.795,1008.757,-1627.5,-3858.75,787.5,-44.08,-220.4,-345.04
604178.4967,195.261,10.187,1006.622,-936.25,-4891.25,1365.0,-57.76,-224.96,-326.8
604178.5467,196.542,9.394,1005.219,-770.0,-6685.0,2782.5,-47.12,-221.92,-345.04
604178.5967,223.321,11.956,997.289,-3080.0,-6860.0,945.0,-51.68,-223.44,-340.48
604178.6467,220.393,1.098,998.387,-2730.0,-5276.25,411.25,-62.32,-220.4,-329.84
604178.6967,224.419,-7.991,1002.047,262.5,-3858.75,175.0,-44.08,-218.88,-348.08
604178.7467,207.522,24.339,998.753,-945.0,-3097.5,-708.75,-45.6,-218.88,-352.64
604178.7967,201.3,4.697,1003.999,-2065.0,-3683.75,700.0,-41.04,-208.24,-338.96
604178.8467,206.546,7.381,1003.45,-1557.5,-3158.75,1601.25,-59.28,-220.4,-337.44
604178.8967,197.396,2.867,1004.548,-936.25,-2021.25,1006.25,-24.32,-217.36,-345.04
604178.9467,195.749,1.708,1007.598,-1968.75,-4838.75,717.5,-42.56,-228.0,-329.84
604178.9967,205.326,15.372,1004.975,-1898.75,-3578.75,-1111.25,-51.68,-228.0,-346.56
604179.0467,187.697,8.235,1005.28,-2091.25,-3867.5,-507.5,-45.6,-221.92,-340.48
604179.0967,203.13,8.906,1001.315,-1190.0,-4838.75,1076.25,-48.64,-215.84,-326.8
604179.1467,202.337,13.054,1001.803,-752.5,-3797.5,708.75,-42.56,-224.96,-332.88
604179.1967,193.126,16.226,999.729,-2852.5,-5188.75,813.75,-50.16,-226.48,-340.48
604179.2467,202.459,-3.416,1003.572,-2283.75,-3911.25,1977.5,-51.68,-229.52,-348.08
604179.2967,199.47,-2.806,1003.572,-700.0,-2975.0,1942.5,-38.0,-223.44,-335.92
604179.3467,187.087,11.224,1008.025,-1785.0,-3570.0,393.75,-50.16,-229.52,-332.88
604179.3967,185.135,5.49,1009.855,-1496.25,-4348.75,61.25,-44.08,-217.36,-328.32
604179.4467,196.481,18.178,999.851,-3123.75,-5810.0,1828.75,-53.2,-234.08,-346.56
604179.4968,215.696,-14.762,1007.232,-2668.75,-4401.25,3351.25,-53.2,-215.84,-335.92
604179.5467,204.899,-2.135,1009.306,-26.25,-2135.0,437.5,-30.4,-224.96,-352.64
604179.5967,176.412,-0.427,1007.537,-2975.0,-4103.75,-988.75,-36.48,-209.76,-337.44
604179.6467,198.982,-1.342,1003.755,-1155.0,-5740.0,105.0,-42.56,-212.8,-334.4
604179.6967,202.093,3.111,999.363,-708.75,-3806.25,910.0,-50.16,-226.48,-342.0
604179.7467,188.551,10.248,1008.086,-1347.5,-4637.5,1750.0,-27.36,-215.84,-329.84
604179.7967,191.723,6.405,1011.38,-1286.25,-4453.75,1146.25,-33.44,-223.44,-351.12
604179.8467,180.438,5.246,1008.879,-2773.75,-5696.25,52.5,-41.04,-224.96,-334.4
604179.8967,201.239,-7.198,1003.877,-1671.25,-7000.0,551.25,-57.76,-214.32,-335.92
604179.9467,209.047,2.623,1002.291,-70.0,-5171.25,-402.5,-57.76,-228.0,-345.04
604179.9967,200.751,14.213,1003.572,-1408.75,-4602.5,-105.0,-39.52,-231.04,-334.4
604180.0467,199.287,12.322,1004.731,-1688.75,-4970.0,1452.5,-48.64,-234.08,-332.88
604180.0967,194.834,3.904,1003.694,-1417.5,-4926.25,2817.5,-48.64,-214.32,-348.08
604180.1467,201.178,1.037,1002.901,-2415.0,-5398.75,1995.0,-50.16,-234.08,-338.96
604180.1968,198.372,-1.159,1002.535,-1802.5,-4278.75,971.25,-50.16,-203.68,-328.32
604180.2467,198.677,9.15,1004.304,-1925.0,-5416.25,656.25,-31.92,-223.44,-360.24
604180.2967,198.006,5.368,999.424,-2660.0,-6221.25,980.0,-50.16,-226.48,-337.44
604180.3467,211.853,-2.44,1013.942,323.75,-4803.75,778.75,-36.48,-228.0,-345.04
604180.3967,193.37,18.971,1002.047,-2476.25,-5136.25,1680.0,-53.2,-211.28,-337.44
604180.4467,199.531,-0.122,1003.267,-3526.25,-6002.5,1925.0,-38.0,-209.76,-345.04
604180.4967,207.095,-0.671,1002.84,-2143.75,-4856.25,3062.5,-56.24,-221.92,-345.04
604180.5467,199.836,-0.244,1003.816,-2896.25,-4978.75,3403.75,-36.48,-206.72,-343.52
604180.5967,201.605,-5.612,1004.67,-2782.5,-5687.5,2546.25,-65.36,-211.28,-340.48
604180.6467,199.592,-6.466,1005.646,-2642.5,-4628.75,2021.25,-62.32,-214.32,-323.76
604180.6967,192.821,-9.516,1004.914,-3185.0,-6011.25,2642.5,-60.8,-234.08,-355.68
604180.7467,213.988,-21.777,1004.426,-2108.75,-6562.5,2196.25,-59.28,-220.4,-335.92
604180.7967,213.5,-2.379,1002.901,-2782.5,-5652.5,-743.75,-45.6,-212.8,-348.08
604180.8467,209.596,-7.32,995.154,-1942.5,-6571.25,-3360.0,-38.0,-211.28,-349.6
604180.8967,185.074,-1.952,1016.26,-857.5,-8636.25,647.5,-48.64,-214.32,-338.96
604180.9468,217.526,18.91,997.228,-1146.25,-11768.75,5486.25,-56.24,-224.96,-335.92
604180.9967,237.961,8.052,994.117,-2502.5,-7708.75,5171.25,-56.24,-218.88,-352.64
604181.0467,200.202,-3.172,995.825,-6492.5,-7918.75,8531.25,-65.36,-199.12,-340.48
604181.0967,234.789,-51.24,997.228,-4637.5,-7420.0,9555.0,-54.72,-215.84,-338.96
604181.1467,246.379,-61.305,996.984,-5801.25,-8111.25,5451.25,-66.88,-218.88,-342.0
604181.1967,240.34,-54.717,991.738,-4970.0,-3990.0,-1295.0,-65.36,-205.2,-332.88
604181.2467,222.65,-65.575,995.093,-2301.25,-4961.25,105.0,-66.88,-209.76,-342.0
604181.2967,256.627,-53.436,987.346,-673.75,-8347.5,-3500.0,-57.76,-200.64,-335.92
604181.3467,291.519,-31.171,993.812,3972.5,192.5,-3018.75,-62.32,-212.8,-346.56
604181.3967,255.956,-26.901,1007.354,3666.25,1216.25,-297.5,-63.84,-206.72,-345.04
604181.4467,171.898,11.468,1010.404,-4532.5,-1006.25,682.5,-53.2,-203.68,-340.48
604181.4967,203.679,-20.557,1011.502,-1382.5,-4532.5,-4436.25,-63.84,-218.88,-338.96
604181.5467,220.027,-15.006,977.586,533.75,-5302.5,-3237.5,-66.88,-203.68,-325.28
604181.5967,219.051,-10.248,1001.864,385.0,-3438.75,1312.5,-63.84,-209.76,-343.52
604181.6467,185.745,-1.708,1002.047,2625.0,3360.0,-848.75,-45.6,-218.88,-334.4
604181.6967,144.204,27.816,1024.556,-1478.75,-6046.25,-1750.0,-44.08,-208.24,-329.84
604181.7467,182.329,6.527,1016.016,-3797.5,-11427.5,551.25,-48.64,-218.88,-342.0
604181.7967,231.739,-21.716,1005.402,-1557.5,-12118.75,1496.25,-63.84,-228.0,-338.96
604181.8467,261.385,6.344,991.921,-1881.25,-11777.5,2896.25,-42.56,-203.68,-334.4
604181.8967,250.344,-3.233,976.183,-2931.25,-9861.25,2161.25,-57.76,-224.96,-323.76
604181.9467,273.28,-14.152,993.385,-3587.5,-7201.25,1592.5,-68.4,-205.2,-332.88
604181.9967,252.174,-1.342,993.69,-2371.25,-4698.75,3885.0,-72.96,-208.24,-345.04
604182.0467,236.375,-30.927,1003.511,-3858.75,-5232.5,6667.5,-65.36,-200.64,-340.48
604182.0967,228.567,-35.502,998.509,-3377.5,-7857.5,4838.75,-57.76,-205.2,-323.76
604182.1467,256.627,-49.288,1004.426,-1785.0,-8426.25,1435.0,-66.88,-209.76,-329.84
604182.1967,250.832,-33.794,997.411,-2152.5,-9476.25,1461.25,-77.52,-211.28,-334.4
604182.2467,263.581,-24.522,996.13,-1041.25,-8916.25,201.25,-53.2,-205.2,-343.52
604182.2967,275.781,-38.064,983.564,-4917.5,-8400.0,-3193.75,-65.36,-211.28,-334.4
604182.3467,283.711,-8.723,985.577,-3736.25,-3850.0,-4961.25,-60.8,-212.8,-328.32
604182.3968,273.585,-35.136,989.847,-4847.5,-3176.25,-4908.75,-71.44,-200.64,-335.92
604182.4467,239.73,-29.829,994.91,-3675.0,-507.5,-3027.5,-63.84,-209.76,-342.0
604182.4967,199.897,-29.097,1008.757,1067.5,586.25,735.0,-82.08,-209.76,-340.48
604182.5467,209.779,-23.912,1007.049,2012.5,-3955.0,3963.75,-57.76,-215.84,-320.72
604182.5967,221.796,-7.686,998.753,2913.75,-5171.25,4331.25,-62.32,-209.76,-329.84
604182.6467,230.031,-2.44,992.653,131.25,-6098.75,2625.0,-82.08,-221.92,-338.96
604182.6967,265.594,-15.372,989.298,-1373.75,-6300.0,708.75,-65.36,-209.76,-335.92
604182.7467,256.627,-16.043,990.64,-1321.25,-4541.25,-4243.75,-65.36,-199.12,-329.84
604182.7967,248.941,-17.629,991.433,-3080.0,-5013.75,-4882.5,-71.44,-212.8,-343.52
604182.8467,246.44,-30.073,996.801,-1505.0,-3307.5,-2135.0,-60.8,-211.28,-323.76
604182.8967,247.355,-20.984,993.873,-603.75,-4952.5,621.25,-72.96,-208.24,-332.88
604182.9467,259.677,-12.139,987.163,-131.25,-2170.0,1505.0,-56.24,-205.2,-329.84
604182.9967,267.058,-23.607,986.065,-936.25,1356.25,1120.0,-60.8,-217.36,-320.72
604183.0467,251.381,-22.997,984.296,-577.5,3351.25,1111.25,-57.76,-211.28,-329.84
604183.0967,227.957,-30.195,999.058,-262.5,4331.25,2432.5,-66.88,-211.28,-317.68
604183.1467,220.759,-29.829,995.459,577.5,2476.25,253.75,-60.8,-205.2,-335.92
604183.1967,228.75,-24.095,1002.718,1776.25,4445.0,-148.75,-42.56,-200.64,-342.0
604183.2467,172.63,-12.81,1018.334,2983.75,1907.5,-717.5,-63.84,-223.44,-348.08
604183.2967,180.56,-5.246,1020.713,1286.25,-2152.5,-70.0,-54.72,-226.48,-338.96
604183.3467,191.174,-0.732,1003.999,481.25,-3946.25,-1461.25,-41.04,-212.8,-334.4
604183.3967,199.897,15.311,999.546,420.0,-4182.5,-1872.5,-33.44,-218.88,-345.04
604183.4467,200.751,5.612,1001.437,183.75,-4900.0,-166.25,-42.56,-223.44,-335.92
604183.4967,212.585,20.374,1011.868,2520.0,-4777.5,-1015.0,-48.64,-229.52,-332.88
604183.5467,207.888,34.892,1001.986,1671.25,-4987.5,-726.25,-54.72,-208.24,-338.96
604183.5967,229.177,45.079,996.801,-761.25,-6702.5,936.25,-54.72,-212.8,-345.04
604183.6467,236.985,18.422,988.078,-3701.25,-1863.75,4777.5,-60.8,-208.24,-337.44
604183.6967,223.748,-0.61,992.287,-1688.75,245.0,6317.5,-48.64,-220.4,-340.48
604183.7467,193.553,6.1,999.851,-3220.0,2415.0,4191.25,-44.08,-221.92,-351.12
604183.7967,183.305,-9.394,1015.833,-3605.0,1321.25,1846.25,-56.24,-223.44,-332.88
604183.8468,158.112,-7.076,1013.698,-2073.75,385.0,210.0,-51.68,-217.36,-340.48
604183.8967,171.349,-15.738,1012.112,-1015.0,-2563.75,-490.0,-54.72,-226.48,-334.4
604183.9467,165.493,-0.305,1014.064,-918.75,-4515.0,-1076.25,-34.96,-214.32,-338.96
604183.9967,185.379,0.549,1003.877,-603.75,-4523.75,-1592.5,-53.2,-217.36,-314.64
604184.0467,183.61,4.392,1004.914,-227.5,-4803.75,-1067.5,-28.88,-218.88,-361.76
604184.0967,185.806,8.479,1005.646,52.5,-4532.5,-446.25,-60.8,-228.0,-338.96
604184.1467,181.78,23.424,1007.11,-393.75,-3535.0,-455.0,-45.6,-220.4,-319.2
604184.1967,173.057,22.021,1007.903,-2563.75,-4182.5,-350.0,-41.04,-228.0,-343.52
604184.2467,185.074,2.257,1011.563,-3141.25,-4716.25,1478.75,-45.6,-214.32,-345.04
604184.2967,178.791,3.477,1006.012,-157.5,-2957.5,1190.0,-59.28,-215.84,-352.64
604184.3467,173.057,15.372,1002.291,-1741.25,-3815.0,1837.5,-42.56,-223.44,-332.88
604184.3967,162.016,5.551,1014.247,-2065.0,-4252.5,341.25,-30.4,-215.84,-326.8
604184.4467,168.848,4.087,1008.879,-2975.0,-5346.25,376.25,-57.76,-208.24,-338.96
604184.4967,175.497,1.098,1008.391,-2047.5,-5503.75,525.0,-56.24,-223.44,-334.4
604184.5467,184.281,0.122,1009.55,-2205.0,-5748.75,175.0,-39.52,-203.68,-338.96
604184.5967,190.015,3.599,1005.524,-1627.5,-5355.0,490.0,-34.96,-209.76,-328.32
604184.6467,183.793,2.44,1004.243,-1960.0,-5670.0,1181.25,-53.2,-202.16,-331.36
604184.6967,187.148,3.843,1003.328,-840.0,-5801.25,140.0,-38.0,-212.8,-329.84
604184.7467,197.579,12.505,1003.389,-1435.0,-5416.25,-813.75,-48.64,-221.92,-351.12
604184.7967,181.536,4.941,1006.866,-1960.0,-4331.25,-315.0,-39.52,-223.44,-346.56
604184.8467,183.549,5.185,1006.5,-953.75,-4506.25,752.5,-41.04,-211.28,-323.76
604184.8967,180.865,12.444,1007.842,-1811.25,-5136.25,892.5,-45.6,-218.88,-335.92
604184.9467,185.44,8.296,1005.402,-2196.25,-4865.0,691.25,-44.08,-217.36,-338.96
604184.9967,183.366,7.686,1002.413,-2397.5,-4436.25,1015.0,-36.48,-212.8,-332.88
604185.0467,193.553,-13.054,1009.611,-1120.0,-4628.75,682.5,-42.56,-221.92,-334.4
604185.0967,187.636,9.699,1005.707,-315.0,-4226.25,43.75,-56.24,-215.84,-320.72
604185.1467,178.303,9.577,1006.073,-2756.25,-5241.25,218.75,-36.48,-221.92,-343.52
604185.1967,187.27,-1.586,1006.439,-2012.5,-4830.0,1435.0,-25.84,-221.92,-332.88
604185.2467,182.207,0.732,1004.853,-1093.75,-4532.5,1610.0,-53.2,-223.44,-342.0
604185.2968,185.501,3.05,1006.744,-2843.75,-5818.75,831.25,-65.36,-215.84,-323.76
604185.3467,194.346,7.564,1002.23,-2213.75,-4681.25,78.75,-41.04,-208.24,-345.04
604185.3967,180.682,6.039,1001.437,-3176.25,-4182.5,271.25,-54.72,-224.96,-346.56
604185.4467,183.0,-15.311,1007.903,-2030.0,-5057.5,866.25,-33.44,-228.0,-334.4
604185.4968,194.529,-4.941,1008.33,-271.25,-4716.25,297.5,-57.76,-217.36,-342.0
604185.5467,186.965,8.723,1004.121,-1785.0,-4165.0,-700.0,-45.6,-212.8,-340.48
604185.5967,190.625,0.549,1006.378,-1548.75,-5521.25,1601.25,-45.6,-217.36,-332.88
604185.6467,189.1,-4.758,1006.012,-1347.5,-5258.75,2458.75,-44.08,-229.52,-352.64
604185.6967,195.444,-2.44,1002.108,-1233.75,-5215.0,148.75,-48.64,-215.84,-340.48
604185.7467,195.566,5.612,1004.182,-1636.25,-4436.25,-61.25,-47.12,-202.16,-332.88
604185.7967,189.222,-0.244,1000.461,-2922.5,-5425.0,-210.0,-47.12,-223.44,-348.08
604185.8467,203.435,-1.769,1005.28,236.25,-2808.75,1198.75,-42.56,-217.36,-331.36
604185.8967,173.545,7.076,1009.672,-525.0,-2520.0,2310.0,-39.52,-224.96,-343.52
604185.9467,177.022,-3.355,1010.648,-2047.5,-5442.5,2756.25,-47.12,-215.84,-342.0
604185.9967,189.1,-3.904,1006.256,-1417.5,-5740.0,3211.25,-44.08,-220.4,-329.84
604186.0467,184.769,3.721,1002.169,-1111.25,-4751.25,2668.75,-39.52,-218.88,-338.96
604186.0967,199.47,-2.44,1000.766,-2668.75,-4803.75,866.25,-39.52,-214.32,-346.56
604186.1467,191.845,-5.734,1005.707,-2178.75,-3045.0,192.5,-51.68,-208.24,-337.44
604186.1967,184.037,-7.32,1008.33,-1312.5,-5092.5,1006.25,-50.16,-211.28,-338.96
604186.2467,187.026,1.098,1007.049,-542.5,-4961.25,175.0,-50.16,-226.48,-338.96
604186.2967,192.272,12.688,1003.511,-1417.5,-5713.75,175.0,-39.52,-221.92,-338.96
604186.3467,204.228,7.503,1001.071,-2773.75,-4191.25,1400.0,-47.12,-221.92,-346.56
604186.3967,193.37,-2.562,1003.328,-2817.5,-4340.0,2721.25,-36.48,-203.68,-343.52
604186.4467,193.797,-5.734,1005.89,-2240.0,-3683.75,2318.75,-42.56,-203.68,-335.92
604186.4967,183.671,-3.355,1007.659,-1321.25,-4025.0,420.0,-53.2,-209.76,-326.8
604186.5467,182.817,4.697,1009.489,-3193.75,-5223.75,-87.5,-30.4,-215.84,-337.44
604186.5967,199.165,-26.413,1007.781,-1968.75,-5258.75,1758.75,-45.6,-212.8,-328.32
604186.6467,203.252,-9.882,1006.378,717.5,-3167.5,1041.25,-56.24,-232.56,-329.84
604186.6967,175.253,-1.891,1003.145,-1662.5,-3368.75,411.25,-44.08,-218.88,-332.88
604186.7468,186.538,-5.978,1008.757,-2222.5,-3570.0,350.0,-42.56,-212.8,-323.76
604186.7967,178.181,-8.235,1007.293,-1933.75,-3500.0,1163.75,-38.0,-215.84,-338.96
604186.8467,176.961,-10.431,1007.964,-2196.25,-5110.0,2108.75,-47.12,-218.88,-340.48
604186.8967,188.185,-7.32,1008.452,-1890.0,-4777.5,105.0,-56.24,-205.2,-335.92
604186.9467,184.586,-7.076,1007.232,-2257.5,-4593.75,-26.25,-44.08,-212.8,-317.68
604186.9967,189.527,-13.359,1008.086,-2563.75,-6431.25,1163.75,-44.08,-208.24,-348.08
604187.0467,203.862,-19.459,1005.341,-1216.25,-5267.5,1190.0,-47.12,-208.24,-338.96
604187.0967,193.309,-0.671,1000.949,-770.0,-4725.0,-1137.5,-48.64,-214.32,-354.16
604187.1467,192.089,-6.222,1011.075,-2712.5,-4488.75,-1645.0,-56.24,-212.8,-332.88
604187.1967,182.268,-8.052,1007.781,-542.5,-5958.75,1050.0,-48.64,-202.16,-349.6
604187.2467,212.158,-7.32,1001.01,-3132.5,-6378.75,1400.0,-36.48,-223.44,-331.36
604187.2967,203.984,-16.226,999.241,-1942.5,-4558.75,-17.5,-59.28,-212.8,-338.96
604187.3467,208.62,-16.531,1005.707,-4900.0,-3158.75,-1496.25,-44.08,-199.12,-340.48
604187.3967,182.085,-28.06,1000.522,-3762.5,-4305.0,-1872.5,-21.28,-211.28,-345.04
604187.4467,208.864,-27.633,1002.657,-1365.0,-3403.75,-78.75,-47.12,-212.8,-354.16
604187.4967,175.375,-23.241,996.862,1575.0,-411.25,1513.75,-56.24,-223.44,-335.92
604187.5467,169.641,-2.501,1018.761,1111.25,-787.5,673.75,-53.2,-215.84,-335.92
604187.5967,155.428,-12.932,1018.639,1015.0,-927.5,1601.25,-41.04,-220.4,-335.92
604187.6467,135.42,16.836,1021.994,525.0,-4891.25,708.75,-33.44,-217.36,-351.12
604187.6967,156.526,9.211,1016.077,-2117.5,-8391.25,-1006.25,-28.88,-220.4,-335.92
604187.7467,201.971,5.307,999.18,-3718.75,-9117.5,-3482.5,-41.04,-206.72,-332.88
604187.7967,208.864,-4.88,1002.596,-4908.75,-6081.25,-3981.25,-45.6,-211.28,-338.96
604187.8467,193.675,-10.126,1002.352,-2555.0,-5215.0,-3281.25,-44.08,-206.72,-349.6
604187.8967,200.873,-0.488,1002.779,-1837.5,-4550.0,-2065.0,-57.76,-224.96,-338.96
604187.9467,202.886,0.305,1002.352,-2485.0,-3841.25,-1146.25,-34.96,-220.4,-345.04
604187.9967,191.784,-10.37,1001.132,-1688.75,-2922.5,-822.5,-54.72,-206.72,-342.0
604188.0467,184.098,-6.222,1003.45,-1277.5,-2038.75,-612.5,-45.6,-224.96,-349.6
604188.0967,174.826,-3.05,1010.892,-498.75,-2572.5,210.0,-54.72,-224.96,-328.32
604188.1467,161.406,5.063,1009.916,-3167.5,-3701.25,848.75,-41.04,-224.96,-334.4
604188.1968,167.994,-0.061,1006.805,-3237.5,-4366.25,1566.25,-28.88,-220.4,-337.44
604188.2467,172.569,-19.459,1012.539,-1785.0,-3797.5,1032.5,-28.88,-205.2,-335.92
604188.2967,206.302,-1.586,1003.084,-11620.0,-4042.5,-2380.0,-60.8,-218.88,-354.16
604188.3467,120.353,-69.418,1009.916,-2371.25,-1688.75,4812.5,-47.12,-205.2,-351.12
604188.3967,193.492,-22.631,1011.441,-2493.75,-9528.75,7831.25,-38.0,-206.72,-328.32
604188.4467,150.792,-47.336,994.971,2257.5,-3596.25,7000.0,-44.08,-217.36,-338.96
604188.4967,160.186,7.442,999.485,-691.25,-10990.0,-1058.75,-42.56,-218.88,-340.48
604188.5467,265.655,0.488,982.466,-9913.75,-11375.0,-6667.5,-42.56,-224.96,-328.32
604188.5967,248.087,-34.221,993.385,-7638.75,-1548.75,-4611.25,-50.16,-206.72,-331.36
604188.6467,171.349,-29.951,1007.903,-2231.25,-4401.25,1435.0,-48.64,-193.04,-331.36
604188.6967,197.64,-39.04,1015.589,3185.0,-4786.25,3692.5,-42.56,-197.6,-342.0
604188.7467,172.874,-7.747,1000.766,6930.0,-4051.25,3053.75,-54.72,-215.84,-346.56
604188.7967,182.329,10.614,1000.461,5958.75,-5818.75,2773.75,-42.56,-211.28,-334.4
604188.8467,189.161,22.265,999.729,6781.25,-3867.5,3911.25,-38.0,-206.72,-331.36
604188.8967,178.181,34.465,1018.517,507.5,-2292.5,1916.25,-33.44,-220.4,-332.88
604188.9467,168.97,30.195,1013.027,-4016.25,-5092.5,-1207.5,-44.08,-214.32,-338.96
604188.9967,182.39,7.747,1002.108,-6728.75,-5967.5,-892.5,-45.6,-212.8,-332.88
604189.0467,200.873,-33.184,1012.539,-6308.75,-5503.75,2808.75,-53.2,-194.56,-351.12
604189.0967,182.451,-22.753,1007.964,-2502.5,-3412.5,3605.0,-34.96,-215.84,-349.6
604189.1467,183.732,-25.437,1007.293,-4261.25,-5460.0,2940.0,-50.16,-211.28,-351.12
604189.1967,192.699,-42.273,1006.073,-3298.75,-6562.5,2406.25,-47.12,-226.48,-338.96
604189.2467,204.655,-40.687,1009.428,-1802.5,-5696.25,2528.75,-62.32,-202.16,-329.84
604189.2967,201.788,-36.478,1001.559,-2581.25,-5180.0,0.0,-38.0,-208.24,-335.92
604189.3467,206.302,-35.075,1001.193,-551.25,-4628.75,-2598.75,-44.08,-212.8,-351.12
604189.3967,199.775,-20.13,999.607,-516.25,-4375.0,-3290.0,-45.6,-208.24,-348.08
604189.4467,197.701,-19.642,1001.864,341.25,-3596.25,-3053.75,-50.16,-212.8,-332.88
604189.4967,201.849,-11.651,1005.036,1093.75,-3438.75,-2458.75,-36.48,-217.36,-334.4
604189.5467,187.88,-2.318,1006.439,420.0,-2765.0,-3097.5,-44.08,-194.56,-328.32
604189.5967,184.769,2.928,1009.489,-586.25,-4480.0,-1811.25,-53.2,-221.92,-337.44
604189.6468,182.329,3.965,1006.927,-805.0,-5022.5,-332.5,-47.12,-211.28,-326.8
604189.6967,183.976,-0.305,1004.121,-910.0,-5556.25,1023.75,-45.6,-202.16,-332.88
604189.7467,194.956,5.917,996.557,-2555.0,-5241.25,752.5,-41.04,-211.28,-345.04
604189.7967,197.396,-9.516,1002.535,-2835.0,-4340.0,1487.5,-45.6,-206.72,-343.52
604189.8467,194.834,-18.239,1010.282,-770.0,-4453.75,2126.25,-54.72,-226.48,-351.12
604189.8967,188.612,4.331,1007.171,-498.75,-3395.0,280.0,-60.8,-208.24,-334.4
604189.9467,181.475,-4.026,1005.951,-3867.5,-6028.75,463.75,-51.68,-202.16,-349.6
604189.9967,198.372,-9.699,1003.999,-2528.75,-5888.75,2633.75,-42.56,-220.4,-328.32
604190.0467,194.407,-13.664,1004.914,-2100.0,-4637.5,2957.5,-33.44,-221.92,-334.4
604190.0967,193.492,-16.348,1007.659,-3246.25,-6230.0,2170.0,-47.12,-212.8,-335.92
604190.1467,194.773,-16.836,1006.439,-2756.25,-5468.75,752.5,-47.12,-215.84,-335.92
604190.1967,190.869,-20.313,1006.439,-3106.25,-5985.0,691.25,-36.48,-205.2,-325.28
604190.2467,196.786,-23.058,1002.535,-1995.0,-7743.75,927.5,-54.72,-208.24,-340.48
604190.2967,207.034,-18.727,1000.949,-1505.0,-6833.75,673.75,-48.64,-209.76,-343.52
604190.3467,203.801,-14.945,1000.583,-2318.75,-5363.75,-761.25,-60.8,-212.8,-335.92
604190.3967,207.827,-23.058,1003.023,-2616.25,-6063.75,1146.25,-53.2,-212.8,-325.28
604190.4467,211.548,-22.143,1001.62,-1566.25,-4471.25,1382.5,-62.32,-209.76,-337.44
604190.4967,207.095,-24.217,1003.206,-2205.0,-5398.75,997.5,-56.24,-212.8,-334.4
604190.5467,207.461,-18.666,1002.657,-1723.75,-5390.0,953.75,-42.56,-206.72,-338.96
604190.5967,206.485,-20.374,1001.437,-2450.0,-4646.25,428.75,-66.88,-200.64,-328.32
604190.6467,217.587,-38.918,1005.951,-997.5,-5425.0,787.5,-45.6,-215.84,-346.56
604190.6967,204.228,-12.566,1004.67,306.25,-3115.0,-638.75,-54.72,-243.2,-338.96
604190.7467,196.054,-13.481,1003.389,-2625.0,-5118.75,-542.5,-59.28,-214.32,-349.6
604190.7967,198.311,-19.52,1001.132,-2152.5,-5600.0,1251.25,-42.56,-208.24,-332.88
604190.8467,205.936,-20.984,1006.134,-831.25,-4567.5,1505.0,-48.64,-206.72,-323.76
604190.8967,206.729,-20.374,1004.365,-2808.75,-5503.75,306.25,-62.32,-191.52,-338.96
604190.9467,211.243,-27.755,1002.84,-1820.0,-5118.75,-17.5,-57.76,-206.72,-337.44
604190.9967,207.034,-26.474,998.57,-1601.25,-4961.25,358.75,-54.72,-214.32,-342.0
604191.0467,213.439,-28.304,1002.352,-638.75,-4742.5,-166.25,-47.12,-208.24,-331.36
604191.0968,207.827,-17.69,1003.45,105.0,-3955.0,-1426.25,-53.2,-209.76,-331.36
604191.1467,198.982,-5.612,1004.548,-1811.25,-4768.75,-1557.5,-71.44,-220.4,-334.4
604191.1967,201.361,-10.858,1003.45,-1995.0,-5416.25,385.0,-44.08,-194.56,-346.56
604191.2467,215.086,-13.908,1003.206,-1513.75,-4567.5,1837.5,-42.56,-211.28,-332.88
604191.2967,206.668,-20.313,999.668,-2353.75,-5372.5,1645.0,-69.92,-209.76,-332.88
604191.3467,213.256,-23.363,1001.132,-1505.0,-4532.5,805.0,-53.2,-200.64,-317.68
604191.3967,210.877,-18.849,999.241,-2686.25,-5040.0,52.5,-62.32,-205.2,-352.64
604191.4467,217.892,-31.232,1002.657,-2292.5,-5328.75,988.75,-31.92,-211.28,-340.48
604191.4967,219.417,-14.762,1003.694,148.75,-2240.0,306.25,-48.64,-202.16,-343.52
604191.5467,200.019,-12.444,1004.06,-2108.75,-4523.75,481.25,-45.6,-224.96,-345.04
604191.5967,210.816,-19.459,999.79,-2423.75,-4515.0,822.5,-59.28,-191.52,-328.32
604191.6467,214.171,-23.058,1002.291,-1452.5,-2642.5,1872.5,-45.6,-191.52,-337.44
604191.6967,192.516,-20.13,1005.341,-2003.75,-3307.5,2248.75,-47.12,-209.76,-335.92
604191.7467,213.134,-24.766,1003.328,-1863.75,-4296.25,1338.75,-54.72,-199.12,-329.84
604191.7967,193.065,-27.023,1006.988,-1688.75,-4331.25,1242.5,-59.28,-193.04,-340.48
604191.8467,202.825,-30.683,1001.803,-1058.75,-5460.0,533.75,-53.2,-209.76,-346.56
604191.8967,217.465,-15.555,999.607,-446.25,-3858.75,-1400.0,-59.28,-208.24,-338.96
604191.9467,204.106,-13.664,999.058,-1251.25,-3543.75,-787.5,-53.2,-208.24,-337.44
604191.9967,204.96,-14.701,1003.389,-1181.25,-4235.0,1260.0,-48.64,-202.16,-329.84
604192.0467,208.376,-15.433,999.18,-1522.5,-2738.75,2773.75,-38.0,-200.64,-342.0
604192.0967,204.35,-18.544,1002.047,-1951.25,-2283.75,2213.75,-50.16,-212.8,-340.48
604192.1467,196.481,-27.572,1008.574,-542.5,-1610.0,1373.75,-48.64,-208.24,-338.96
604192.1967,189.527,-15.006,1007.659,-2012.5,-3228.75,183.75,-47.12,-203.68,-338.96
604192.2467,193.248,-28.853,1006.317,-2021.25,-4095.0,647.5,-60.8,-200.64,-326.8
604192.2967,198.738,-19.825,1005.463,1373.75,-2240.0,-332.5,-48.64,-202.16,-354.16
604192.3467,179.645,0.244,1002.352,-945.0,-2817.5,-1015.0,-60.8,-212.8,-335.92
604192.3967,185.135,-17.324,1008.025,-2012.5,-4103.75,525.0,-57.76,-212.8,-331.36
604192.4467,191.723,-18.666,1006.988,-936.25,-3561.25,2205.0,-50.16,-191.52,-337.44
604192.4967,186.477,-10.98,1001.315,-1723.75,-3823.75,1076.25,-44.08,-215.84,-346.56
604192.5468,188.978,-25.437,1009.062,-1575.0,-4427.5,367.5,-47.12,-223.44,-340.48
604192.5968,187.453,-13.298,1006.012,-1828.75,-4305.0,297.5,-53.2,-215.84,-338.96
604192.6467,186.416,-22.753,1005.219,-2021.25,-5652.5,892.5,-45.6,-223.44,-334.4
604192.6967,202.032,-16.104,1001.864,-61.25,-4541.25,8.75,-34.96,-203.68,-342.0
604192.7467,196.054,-5.612,1002.413,-910.0,-3517.5,-1172.5,-25.84,-205.2,-340.48
604192.7967,187.88,-13.298,1006.134,-1872.5,-3648.75,306.25,-33.44,-209.76,-343.52
604192.8468,187.758,-19.093,1008.879,-1531.25,-4357.5,2100.0,-51.68,-217.36,-338.96
604192.8967,189.71,-16.104,1006.317,-1706.25,-4086.25,1960.0,-33.44,-209.76,-346.56
604192.9467,185.928,-22.936,1007.049,-1426.25,-4620.0,1365.0,-38.0,-200.64,-355.68
604192.9967,186.843,-15.067,1005.28,-1583.75,-4698.75,210.0,-44.08,-220.4,-340.48
604193.0467,187.941,-24.766,1002.962,-2248.75,-4567.5,306.25,-53.2,-212.8,-326.8
604193.0967,201.666,-31.354,1009.001,673.75,-3438.75,-105.0,-51.68,-218.88,-331.36
604193.1467,188.368,-0.549,1006.622,-210.0,-2905.0,-936.25,-45.6,-220.4,-340.48
604193.1967,179.279,-12.749,1006.5,-2388.75,-4786.25,350.0,-41.04,-212.8,-338.96
604193.2467,186.233,-19.398,1004.609,-1627.5,-4270.0,2205.0,-45.6,-209.76,-346.56
604193.2967,185.318,-20.252,1009.367,-1032.5,-3412.5,1181.25,-57.76,-209.76,-352.64
604193.3467,183.366,-20.191,1009.245,-2336.25,-5355.0,717.5,-59.28,-212.8,-319.2
604193.3967,193.065,-17.507,1007.598,-1400.0,-4593.75,323.75,-57.76,-211.28,-357.2
604193.4467,179.767,-20.984,1008.147,-1680.0,-4996.25,507.5,-47.12,-205.2,-329.84
604193.4967,194.102,-18.361,1004.731,-691.25,-5127.5,411.25,-63.84,-214.32,-343.52
604193.5467,197.945,-9.455,1004.853,-1120.0,-4331.25,-612.5,-38.0,-215.84,-342.0
604193.5967,186.965,-10.553,1004.365,-2240.0,-4226.25,262.5,-38.0,-206.72,-334.4
604193.6467,188.063,-16.836,1007.537,-1986.25,-3727.5,2056.25,-48.64,-208.24,-343.52
604193.6967,181.902,-19.276,1006.378,-1767.5,-4095.0,2371.25,-42.56,-208.24,-340.48
604193.7467,187.087,-26.291,1006.378,-1785.0,-4602.5,918.75,-31.92,-208.24,-337.44
604193.7967,186.965,-21.899,1008.33,-901.25,-3736.25,43.75,-38.0,-211.28,-345.04
604193.8467,182.207,-12.078,1004.609,-2371.25,-4488.75,218.75,-39.52,-211.28,-337.44
604193.8967,184.891,-28.731,1003.816,-1207.5,-4768.75,1303.75,-48.64,-220.4,-348.08
604193.9467,191.113,-15.982,1006.866,962.5,-3123.75,-323.75,-57.76,-218.88,-343.52
604193.9969,173.24,-6.588,1007.781,-2905.0,-4191.25,-481.25,-38.0,-212.8,-349.6
604194.0467,180.743,-20.313,1008.269,-1837.5,-4051.25,1540.0,-44.08,-209.76,-342.0
604194.0967,185.501,-19.703,1006.012,-1365.0,-3850.0,2380.0,-47.12,-221.92,-334.4
604194.1467,178.547,-16.958,1007.232,-2257.5,-4865.0,1286.25,-44.08,-209.76,-348.08
604194.1967,187.819,-22.265,1007.293,-1478.75,-4305.0,201.25,-45.6,-206.72,-349.6
604194.2467,178.547,-16.043,1007.903,-2047.5,-4121.25,201.25,-33.44,-205.2,-338.96
604194.2967,178.913,-25.62,1007.11,-1207.5,-4838.75,918.75,-38.0,-218.88,-337.44
604194.3467,187.026,-12.505,1005.951,-446.25,-4558.75,192.5,-51.68,-214.32,-328.32
604194.3967,178.913,-7.198,1005.768,-1916.25,-4007.5,-122.5,-50.16,-200.64,-343.52
604194.4467,173.606,-12.2,1009.184,-2327.5,-4296.25,892.5,-47.12,-197.6,-332.88
604194.4967,175.863,-19.276,1008.879,-1680.0,-4821.25,2205.0,-39.52,-209.76,-342.0
604194.5467,181.536,-21.35,1007.781,-1802.5,-4742.5,1907.5,-54.72,-211.28,-343.52
604194.5967,179.706,-24.644,1007.72,-1601.25,-5180.0,673.75,-57.76,-185.44,-328.32
604194.6467,183.732,-10.736,1005.646,-1907.5,-5075.0,-17.5,-54.72,-200.64,-335.92
604194.6967,186.477,-20.862,1004.853,-2450.0,-4987.5,280.0,-48.64,-208.24,-346.56
604194.7467,194.651,-34.465,1007.842,-323.75,-4060.0,813.75,-38.0,-211.28,-343.52
604194.7967,176.839,-0.915,1004.67,-1820.0,-3692.5,-840.0,-51.68,-208.24,-340.48
604194.8467,178.303,-15.677,1008.025,-2660.0,-4488.75,455.0,-50.16,-217.36,-351.12
604194.8967,177.693,-21.533,1007.415,-1531.25,-4567.5,2590.0,-44.08,-212.8,-332.88
604194.9467,180.072,-21.106,1008.94,-1102.5,-3797.5,1330.0,-45.6,-199.12,-337.44
604194.9967,176.717,-18.849,1011.014,-2205.0,-4987.5,227.5,-53.2,-208.24,-335.92
604195.0467,179.767,-17.873,1008.147,-1181.25,-4541.25,87.5,-50.16,-209.76,-343.52
604195.0967,178.242,-18.971,1006.5,-2030.0,-5110.0,218.75,-42.56,-206.72,-348.08
604195.1467,186.721,-22.326,1005.524,-647.5,-4830.0,472.5,-44.08,-208.24,-345.04
604195.1967,188.002,-13.481,1006.805,-875.0,-4611.25,-43.75,-45.6,-200.64,-334.4
604195.2467,179.889,-12.81,1005.097,-1627.5,-4033.75,-332.5,-54.72,-208.24,-338.96
604195.2967,183.366,-18.239,1008.635,-1802.5,-4182.5,1907.5,-42.56,-200.64,-335.92
604195.3467,180.377,-20.923,1008.818,-1268.75,-3788.75,2065.0,-34.96,-200.64,-331.36
604195.3967,179.34,-21.777,1005.768,-1618.75,-4130.0,735.0,-50.16,-214.32,-357.2
604195.4469,178.242,-14.518,1008.696,-1102.5,-4007.5,-175.0,-44.08,-209.76,-337.44
604195.4967,177.144,-12.932,1005.646,-2458.75,-4567.5,70.0,-57.76,-212.8,-323.76
604195.5467,181.292,-30.378,1006.866,-1960.0,-4707.5,1601.25,-27.36,-203.68,-352.64
604195.5967,186.66,-26.291,1011.075,1128.75,-3176.25,437.5,-44.08,-215.84,-340.48
604195.6467,165.188,-4.148,1005.829,-2651.25,-3946.25,-533.75,-39.52,-211.28,-351.12
604195.6967,175.009,-25.681,1008.025,-1837.5,-4882.5,1968.75,-51.68,-214.32,-346.56
604195.7467,177.327,-25.254,1008.94,-1531.25,-4208.75,2546.25,-56.24,-200.64,-338.96
604195.7967,169.946,-19.581,1007.171,-1793.75,-4620.0,1111.25,-38.0,-212.8,-346.56
604195.8467,178.913,-27.084,1008.635,-1610.0,-4707.5,-17.5,-45.6,-205.2,-334.4
604195.8967,177.754,-16.653,1004.243,-1907.5,-4217.5,-341.25,-51.68,-214.32,-338.96
604195.9467,172.691,-27.999,1008.879,-577.5,-4987.5,708.75,-47.12,-220.4,-335.92
604195.9967,181.902,-13.908,1006.622,-533.75,-4672.5,446.25,-44.08,-205.2,-334.4
604196.0467,170.8,-12.078,1005.951,-1723.75,-4401.25,-210.0,-28.88,-208.24,-331.36
604196.0967,173.911,-15.494,1009.306,-1907.5,-4646.25,1365.0,-45.6,-212.8,-332.88
604196.1467,171.959,-20.13,1008.025,-1855.0,-4628.75,1662.5,-36.48,-205.2,-334.4
604196.1967,175.497,-23.851,1007.171,-2038.75,-5066.25,1181.25,-44.08,-200.64,-337.44
604196.2467,179.95,-24.583,1008.94,-1531.25,-4742.5,700.0,-47.12,-202.16,-351.12
604196.2967,177.144,-14.701,1006.195,-1583.75,-4900.0,148.75,-66.88,-211.28,-340.48
604196.3467,184.22,-20.191,1000.522,-2108.75,-3955.0,778.75,-53.2,-209.76,-338.96
604196.3967,185.928,-29.646,1005.585,-1575.0,-4103.75,1277.5,-48.64,-205.2,-340.48
604196.4467,175.558,-6.039,1007.842,-831.25,-3290.0,-385.0,-36.48,-215.84,-343.52
604196.4967,159.271,-10.248,1012.173,-2660.0,-4401.25,393.75,-45.6,-209.76,-342.0
604196.5467,170.007,-25.742,1007.415,-1872.5,-6396.25,2651.25,-47.12,-218.88,-345.04
604196.5967,181.841,-27.999,1005.28,-918.75,-4340.0,717.5,-25.84,-208.24,-345.04
604196.6467,171.532,-20.313,1005.219,-2240.0,-5250.0,-297.5,-38.0,-205.2,-338.96
604196.6967,180.56,-23.851,1012.112,-682.5,-4838.75,8.75,-48.64,-199.12,-342.0
604196.7467,176.839,-14.823,1008.696,-1487.5,-5503.75,1172.5,-54.72,-200.64,-335.92
604196.7967,181.048,-21.899,1004.792,-1478.75,-5302.5,577.5,-57.76,-194.56,-340.48
604196.8467,187.087,-21.777,1006.5,-1277.5,-4856.25,-1181.25,-48.64,-206.72,-320.72
604196.8969,180.011,-13.603,1005.951,-1680.0,-4383.75,-1391.25,-47.12,-199.12,-334.4
604196.9467,176.9,-19.886,1008.757,-1531.25,-4646.25,901.25,-45.6,-208.24,-345.04
604196.9968,175.619,-18.788,1009.245,-1172.5,-5127.5,2021.25,-54.72,-205.2,-346.56
604197.0467,181.963,-18.91,1008.94,-2143.75,-5328.75,568.75,-48.64,-193.04,-342.0
604197.0967,187.331,-31.293,1006.378,-1881.25,-5188.75,218.75,-33.44,-220.4,-342.0
604197.1467,186.416,-21.289,1003.389,-787.5,-4891.25,393.75,-44.08,-194.56,-358.72
604197.1967,184.525,-23.912,1003.755,-2126.25,-4830.0,315.0,-54.72,-209.76,-348.08
604197.2467,190.808,-29.158,1006.622,560.0,-3605.0,-8.75,-51.68,-200.64,-329.84
604197.2967,175.924,-3.843,1007.293,-96.25,-2625.0,-770.0,-59.28,-203.68,-342.0
604197.3467,176.412,-13.969,1009.672,-2257.5,-4751.25,-96.25,-47.12,-215.84,-342.0
604197.3967,178.669,-21.838,1004.914,-1697.5,-4322.5,1391.25,-59.28,-211.28,-346.56
604197.4467,174.887,-18.605,1005.463,-1120.0,-4182.5,1601.25,-45.6,-209.76,-338.96
604197.4967,182.39,-20.374,1011.258,-1820.0,-4970.0,358.75,-42.56,-209.76,-332.88
604197.5467,184.342,-18.117,1008.94,-1496.25,-4366.25,-323.75,-48.64,-211.28,-334.4
604197.5967,172.325,-22.57,1007.049,-1522.5,-5635.0,437.5,-51.68,-217.36,-340.48
604197.6467,191.296,-19.337,1005.158,-691.25,-5276.25,-227.5,-62.32,-200.64,-343.52
604197.6967,184.83,-9.882,1007.293,-848.75,-4462.5,-551.25,-42.56,-214.32,-331.36
604197.7467,185.562,-13.237,1004.487,-2056.25,-4865.0,245.0,-48.64,-208.24,-338.96
604197.7967,182.939,-22.448,1008.94,-1767.5,-4646.25,1417.5,-51.68,-212.8,-335.92
604197.8467,182.207,-20.801,1005.097,-1601.25,-4515.0,1575.0,-45.6,-202.16,-349.6
604197.8967,182.146,-24.583,1009.794,-1522.5,-4611.25,918.75,-41.04,-235.6,-340.48
604197.9467,180.255,-18.849,1005.402,-1032.5,-4760.0,621.25,-39.52,-208.24,-346.56
604197.9967,184.83,-23.363,998.875,-3202.5,-5136.25,245.0,-57.76,-202.16,-332.88
604198.0467,191.479,-38.613,1009.733,-1286.25,-4847.5,1041.25,-45.6,-208.24,-351.12
604198.0967,178.974,-1.586,1008.696,-420.0,-2590.0,-70.0,-41.04,-205.2,-348.08
604198.1467,180.499,-19.154,1009.428,-2773.75,-5608.75,866.25,-38.0,-220.4,-345.04
604198.1967,187.27,-26.169,1004.975,-1260.0,-4751.25,1461.25,-42.56,-211.28,-342.0
604198.2467,180.743,-20.252,1006.012,-1522.5,-3937.5,1198.75,-48.64,-197.6,-354.16
604198.2967,182.268,-27.694,1013.576,-1855.0,-4768.75,1050.0,-44.08,-206.72,-343.52
604198.3469,181.78,-19.52,1009.855,-1356.25,-4313.75,542.5,-53.2,-223.44,-335.92
604198.3967,175.619,-27.328,1008.025,-1671.25,-5276.25,883.75,-41.04,-209.76,-348.08
604198.4468,182.573,-27.145,1005.951,-953.75,-5801.25,691.25,-31.92,-202.16,-340.48
604198.4967,190.93,-14.823,1003.511,-586.25,-4436.25,-752.5,-42.56,-200.64,-348.08
604198.5467,181.414,-13.786,1005.646,-1811.25,-3657.5,-288.75,-50.16,-215.84,-331.36
604198.5967,179.523,-16.47,1010.282,-1286.25,-3570.0,1190.0,-56.24,-212.8,-342.0
604198.6467,176.412,-15.738,1009.733,-1723.75,-4646.25,1890.0,-56.24,-217.36,-334.4
604198.6967,177.327,-19.276,1007.903,-2187.5,-4786.25,1137.5,-28.88,-206.72,-342.0
604198.7467,181.109,-22.509,1005.524,-1373.75,-4786.25,700.0,-39.52,-215.84,-348.08
604198.7967,181.719,-16.592,1005.158,-2878.75,-5136.25,288.75,-57.76,-224.96,-334.4
604198.8467,185.867,-32.574,1004.06,-2563.75,-5110.0,1435.0,-31.92,-200.64,-342.0
604198.8967,189.71,-19.398,1006.866,857.5,-2642.5,-17.5,-36.48,-200.64,-342.0
604198.9467,170.434,-8.54,1006.622,-2511.25,-4515.0,-183.75,-34.96,-205.2,-343.52
604198.9967,176.717,-20.801,1008.879,-2240.0,-4480.0,953.75,-56.24,-220.4,-337.44
604199.0467,178.73,-25.254,1007.964,-1496.25,-3902.5,2003.75,-42.56,-217.36,-345.04
604199.0967,175.558,-18.91,1008.33,-1382.5,-4051.25,1505.0,-38.0,-209.76,-345.04
604199.1467,179.828,-26.596,1008.94,-1470.0,-4497.5,630.0,-39.52,-202.16,-342.0
604199.1967,177.205,-21.411,1007.964,-1951.25,-4716.25,306.25,-39.52,-221.92,-337.44
604199.2467,176.9,-29.28,1005.585,-1365.0,-5477.5,507.5,-48.64,-208.24,-349.6
604199.2967,188.49,-19.032,1003.328,-297.5,-4322.5,-157.5,-38.0,-202.16,-337.44
604199.3467,181.963,-12.139,1004.304,-1120.0,-4252.5,-848.75,-39.52,-205.2,-329.84
604199.3967,175.924,-13.298,1007.72,-2056.25,-4445.0,271.25,-53.2,-205.2,-345.04
604199.4467,179.035,-21.106,1008.757,-1557.5,-4471.25,2021.25,-41.04,-214.32,-334.4
604199.4967,174.948,-19.703,1007.171,-1863.75,-4663.75,1653.75,-48.64,-208.24,-342.0
604199.5467,180.194,-25.498,1008.574,-1260.0,-4471.25,367.5,-47.12,-215.84,-331.36
604199.5967,178.364,-16.836,1005.646,-2012.5,-4585.0,105.0,-51.68,-205.2,-345.04
604199.6467,177.571,-30.927,1001.986,-1916.25,-4865.0,962.5,-57.76,-199.12,-342.0
604199.6967,190.259,-25.559,1008.452,787.5,-3648.75,-245.0,-45.6,-203.68,-331.36
604199.7467,175.436,-1.891,1003.511,-1260.0,-3185.0,-901.25,-34.96,-217.36,-345.04
604199.7967,171.837,-21.167,1005.951,-2415.0,-4733.75,1251.25,-45.6,-208.24,-338.96
604199.8467,176.778,-26.596,1007.049,-1890.0,-4550.0,2607.5,-51.68,-197.6,-342.0
604199.8968,178.303,-24.522,1008.513,-1146.25,-3788.75,1478.75,-39.52,-205.2,-342.0
604199.9467,179.889,-27.572,1007.72,-2231.25,-5110.0,245.0,-44.08,-218.88,-348.08
604199.9967,182.207,-23.119,1009.977,-1041.25,-4348.75,-157.5,-59.28,-212.8,-337.44
604200.0467,177.327,-25.01,1007.11,-1531.25,-5066.25,892.5,-53.2,-208.24,-361.76
604200.0967,187.392,-18.361,1007.964,-682.5,-4655.0,638.75,-38.0,-199.12,-345.04
604200.1467,180.316,-14.518,1004.548,-1487.5,-4130.0,-525.0,-44.08,-203.68,-343.52
604200.1968,176.412,-9.577,1007.842,-2397.5,-4296.25,1093.75,-53.2,-211.28,-346.56
604200.2467,173.24,-18.971,1008.391,-2703.75,-4690.0,2808.75,-47.12,-206.72,-342.0
604200.2967,179.279,-26.352,1006.927,-1575.0,-4768.75,2677.5,-33.44,-199.12,-325.28
604200.3467,177.144,-31.964,1008.513,-1557.5,-4418.75,595.0,-48.64,-221.92,-346.56
604200.3967,177.205,-24.217,1006.5,-1601.25,-4558.75,-603.75,-36.48,-218.88,-340.48
604200.4467,181.658,-27.267,1003.267,-1977.5,-4243.75,-236.25,-36.48,-205.2,-335.92
604200.4967,184.647,-36.783,1011.624,332.5,-4060.0,166.25,-53.2,-205.2,-338.96
604200.5467,180.194,-5.429,1005.585,-358.75,-3220.0,-717.5,-47.12,-218.88,-335.92
604200.5967,166.774,-18.91,1007.659,-2660.0,-4462.5,516.25,-47.12,-224.96,-342.0
604200.6467,172.264,-26.962,1006.378,-1933.75,-4926.25,2100.0,-41.04,-209.76,-346.56
604200.6967,180.499,-26.901,1006.012,-971.25,-3360.0,1251.25,-53.2,-203.68,-340.48
604200.7467,168.848,-26.718,1012.173,-2257.5,-5223.75,323.75,-57.76,-202.16,-346.56
604200.7967,182.085,-26.23,1007.598,-1111.25,-5075.0,-332.5,-56.24,-223.44,-342.0
604200.8467,167.689,-23.18,1008.208,-1610.0,-4690.0,87.5,-34.96,-217.36,-351.12
604200.8967,171.959,-25.986,1010.282,-507.5,-5171.25,393.75,-38.0,-193.04,-338.96
604200.9467,186.477,-12.2,1002.352,-866.25,-4296.25,-735.0,-47.12,-212.8,-332.88
604200.9967,170.129,-12.383,1009.611,-2108.75,-4077.5,507.5,-53.2,-197.6,-342.0
604201.0467,171.715,-15.372,1007.964,-2196.25,-4786.25,2073.75,-28.88,-194.56,-342.0
604201.0967,179.645,-25.986,1008.391,-2178.75,-4208.75,2143.75,-33.44,-206.72,-340.48
604201.1467,171.715,-29.341,1008.025,-2187.5,-4970.0,1085.0,-50.16,-208.24,-340.48
604201.1967,177.571,-25.925,1005.219,-1286.25,-4698.75,498.75,-53.2,-203.68,-343.52
604201.2467,178.486,-28.487,1007.415,-2423.75,-4690.0,350.0,-56.24,-193.04,-354.16
604201.2967,174.948,-34.465,1005.463,-2135.0,-5118.75,1093.75,-28.88,-206.72,-351.12
604201.3469,184.891,-20.252,1007.11,0.0,-2983.75,-288.75,-38.0,-226.48,-338.96
604201.3967,166.408,-15.921,1009.489,-2126.25,-4445.0,-306.25,-51.68,-200.64,-338.96
604201.4467,171.654,-22.997,1008.025,-2222.5,-4873.75,1155.0,-45.6,-203.68,-346.56
604201.4967,177.754,-30.866,1007.842,-1295.0,-3902.5,1855.0,-51.68,-186.96,-345.04
604201.5467,165.92,-21.289,1007.964,-1452.5,-4033.75,840.0,-28.88,-208.24,-348.08
604201.5967,180.072,-33.489,1012.173,-1627.5,-4742.5,17.5,-39.52,-218.88,-326.8
604201.6467,170.007,-21.594,1008.757,-1312.5,-4095.0,-271.25,-50.16,-200.64,-340.48
604201.6967,168.848,-28.792,1008.452,-1295.0,-5363.75,586.25,-50.16,-193.04,-331.36
604201.7467,185.318,-17.812,1008.33,-297.5,-4663.75,0.0,-54.72,-206.72,-346.56
604201.7967,175.131,-16.592,1005.28,-1662.5,-4173.75,-341.25,-50.16,-212.8,-334.4
604201.8467,172.508,-18.239,1004.914,-1907.5,-4698.75,638.75,-56.24,-203.68,-348.08
604201.8967,178.059,-21.899,1007.293,-1662.5,-3692.5,2108.75,-44.08,-197.6,-338.96
604201.9467,169.519,-21.594,1006.378,-1977.5,-4541.25,2091.25,-33.44,-208.24,-345.04
604201.9967,175.009,-24.705,1006.622,-2030.0,-4191.25,1706.25,-39.52,-208.24,-338.96
604202.0467,171.837,-22.387,1005.402,-3071.25,-4488.75,1172.5,-28.88,-200.64,-345.04
604202.0967,170.983,-31.903,1002.291,-2458.75,-4488.75,1330.0,-44.08,-193.04,-334.4
604202.1467,190.015,-32.269,1010.099,288.75,-2730.0,901.25,-45.6,-206.72,-343.52
604202.1967,161.101,-12.322,1006.195,-1155.0,-2581.25,840.0,-48.64,-202.16,-343.52
604202.2467,173.484,-26.718,1006.195,-3176.25,-5206.25,1583.75,-39.52,-202.16,-348.08
604202.2967,173.179,-36.112,1010.16,-1601.25,-3438.75,2467.5,-41.04,-203.68,-343.52
604202.3467,163.053,-27.999,1007.903,-1680.0,-3640.0,1907.5,-42.56,-200.64,-355.68
604202.3967,171.837,-40.748,1012.661,-1960.0,-4987.5,1137.5,-50.16,-202.16,-349.6
604202.4467,176.656,-33.428,1013.027,-927.5,-4147.5,551.25,-44.08,-200.64,-338.96
604202.4967,168.116,-37.698,1003.511,-1933.75,-6037.5,437.5,-28.88,-196.08,-338.96
604202.5467,183.305,-34.343,1008.33,-87.5,-4777.5,-253.75,-44.08,-185.44,-325.28
604202.5967,181.109,-17.873,1006.988,-472.5,-3526.25,-1461.25,-57.76,-199.12,-357.2
604202.6467,166.591,-21.777,1006.317,-1846.25,-4961.25,-236.25,-41.04,-194.56,-343.52
604202.6967,170.251,-30.744,1009.672,-1417.5,-4348.75,1785.0,-38.0,-197.6,-346.56
604202.7467,171.837,-27.206,1009.062,-1260.0,-4681.25,1268.75,-50.16,-202.16,-346.56
604202.7969,169.641,-34.648,1008.879,-1478.75,-4191.25,131.25,-51.68,-211.28,-345.04
604202.8467,166.408,-26.779,1006.256,-726.25,-4445.0,-26.25,-47.12,-196.08,-346.56
604202.8967,172.874,-27.267,1005.219,-2353.75,-5005.0,52.5,-31.92,-193.04,-338.96
604202.9467,180.255,-42.212,1012.783,-227.5,-4515.0,726.25,-44.08,-209.76,-325.28
604202.9967,170.739,-16.165,1005.646,376.25,-3246.25,-700.0,-60.8,-197.6,-342.0
604203.0467,169.031,-19.154,1010.282,-2966.25,-4935.0,-437.5,-44.08,-206.72,-343.52
604203.0967,172.081,-33.123,1008.208,-1723.75,-4471.25,1863.75,-38.0,-200.64,-355.68
604203.1467,173.545,-26.413,1006.683,-1128.75,-4462.5,1802.5,-45.6,-221.92,-343.52
604203.1967,169.702,-33.855,1010.465,-1907.5,-5013.75,350.0,-47.12,-217.36,-348.08
604203.2467,170.556,-35.319,1012.356,-1111.25,-4865.0,-192.5,-45.6,-220.4,-343.52
604203.2967,169.946,-21.533,1007.354,-1732.5,-5101.25,-297.5,-47.12,-202.16,-363.28
604203.3467,177.449,-33.489,1006.805,-568.75,-4830.0,0.0,-36.48,-196.08,-349.6
604203.3967,176.839,-21.289,1008.269,17.5,-4480.0,-481.25,-42.56,-208.24,-338.96
604203.4467,163.358,-13.725,1006.683,-1391.25,-4208.75,-1050.0,-42.56,-199.12,-338.96
604203.4967,166.469,-20.435,1010.953,-2126.25,-4838.75,595.0,-48.64,-205.2,-342.0
604203.5467,168.421,-23.485,1009.123,-1592.5,-4978.75,1995.0,-53.2,-226.48,-345.04
604203.5967,172.508,-28.243,1008.513,-1890.0,-4506.25,498.75,-36.48,-200.64,-349.6
604203.6467,174.399,-26.779,1006.927,-1338.75,-4768.75,-8.75,-54.72,-185.44,-348.08
604203.6967,171.959,-21.045,1008.452,-2633.75,-5101.25,332.5,-47.12,-209.76,-343.52
604203.7467,178.669,-34.77,1007.964,-2406.25,-5215.0,1242.5,-36.48,-200.64,-323.76
604203.7967,175.558,-28.67,1009.428,673.75,-3841.25,-560.0,-38.0,-199.12,-342.0
604203.8467,163.785,-11.468,1009.245,-2441.25,-4068.75,-1356.25,-47.12,-194.56,-343.52
604203.8967,164.273,-26.23,1008.391,-1916.25,-5057.5,586.25,-47.12,-202.16,-352.64
604203.9467,176.778,-23.851,1007.781,-638.75,-4550.0,2213.75,-56.24,-211.28,-343.52
604203.9967,165.31,-19.764,1010.709,-2283.75,-4436.25,743.75,-47.12,-202.16,-337.44
604204.0467,171.105,-32.025,1009.489,-1995.0,-4926.25,463.75,-47.12,-202.16,-343.52
604204.0967,172.203,-22.57,1009.916,-1277.5,-4777.5,525.0,-31.92,-221.92,-334.4
604204.1467,169.397,-30.317,1006.988,-1391.25,-5040.0,315.0,-45.6,-188.48,-331.36
604204.1967,176.046,-24.888,1005.89,-87.5,-5040.0,-131.25,-45.6,-200.64,-340.48
604204.2468,168.604,-13.176,1004.609,-1496.25,-4331.25,-1531.25,-45.6,-199.12,-331.36
604204.2967,167.384,-16.958,1007.354,-1986.25,-4760.0,131.25,-62.32,-209.76,-342.0
604204.3468,171.837,-23.607,1009.611,-1233.75,-4453.75,2362.5,-57.76,-215.84,-342.0
604204.3967,169.702,-25.437,1009.672,-1426.25,-4488.75,1312.5,-38.0,-203.68,-357.2
604204.4467,164.883,-29.89,1009.916,-1146.25,-4970.0,-350.0,-36.48,-205.2,-342.0
604204.4967,170.861,-17.141,1008.94,-1741.25,-5337.5,-1216.25,-34.96,-215.84,-357.2
604204.5467,173.484,-20.191,1007.659,-2100.0,-5372.5,-428.75,-39.52,-212.8,-349.6
604204.5967,181.414,-36.478,1011.136,-350.0,-5547.5,717.5,-28.88,-205.2,-345.04
604204.6467,182.146,-11.346,1006.378,-332.5,-3683.75,-1102.5,-45.6,-196.08,-329.84
604204.6967,161.894,-8.784,1007.293,-2966.25,-5477.5,-1006.25,-51.68,-206.72,-337.44
604204.7467,176.229,-25.498,1007.903,-1793.75,-5801.25,1522.5,-50.16,-221.92,-348.08
604204.7967,179.584,-19.093,1006.134,-1417.5,-4935.0,1907.5,-44.08,-191.52,-345.04
604204.8467,167.628,-23.668,1008.208,-2642.5,-6291.25,743.75,-42.56,-209.76,-337.44
604204.8967,188.856,-26.047,1007.537,-813.75,-5337.5,96.25,-53.2,-206.72,-337.44
604204.9467,168.604,-20.069,1008.513,-1557.5,-5451.25,-288.75,-28.88,-215.84,-342.0
604204.9967,186.965,-26.779,1004.67,-778.75,-6203.75,-560.0,-44.08,-214.32,-338.96
604205.0467,187.331,-10.736,1005.28,-183.75,-5136.25,-866.25,-47.12,-215.84,-340.48
604205.0967,176.168,-9.516,1003.694,-1890.0,-5232.5,-367.5,-42.56,-208.24,-338.96
604205.1467,183.183,-16.287,1007.476,-2170.0,-5337.5,1470.0,-41.04,-211.28,-351.12
604205.1967,182.756,-16.775,1008.086,-2213.75,-5180.0,2065.0,-50.16,-211.28,-345.04
604205.2467,179.218,-21.35,1006.378,-2625.0,-5197.5,1478.75,-51.68,-217.36,-338.96
604205.2967,184.22,-26.352,1009.001,-1750.0,-5390.0,1163.75,-39.52,-205.2,-325.28
604205.3467,183.244,-19.459,1005.341,-2913.75,-5757.5,350.0,-16.72,-200.64,-349.6
604205.3967,194.834,-34.221,1006.439,-2003.75,-5757.5,673.75,-28.88,-212.8,-329.84
604205.4467,199.897,-23.18,1006.012,157.5,-3771.25,507.5,-51.68,-220.4,-340.48
604205.4967,181.78,-11.956,1001.864,-2922.5,-5267.5,481.25,-56.24,-206.72,-338.96
604205.5467,184.403,-35.502,1003.755,-2642.5,-4856.25,2826.25,-47.12,-203.68,-337.44
604205.5967,186.782,-34.343,1006.378,-971.25,-4488.75,2616.25,-48.64,-218.88,-346.56
604205.6467,182.939,-21.106,1005.463,-2178.75,-4401.25,-78.75,-57.76,-212.8,-337.44
604205.6967,183.061,-30.073,1010.404,-1688.75,-4506.25,-411.25,-44.08,-197.6,-335.92
604205.7467,188.49,-24.095,1003.389,-1662.5,-4952.5,813.75,-38.0,-217.36,-343.52
604205.7968,190.198,-35.685,1003.023,-1260.0,-4681.25,980.0,-51.68,-206.72,-340.48
604205.8467,202.642,-30.317,1003.572,0.0,-3377.5,-70.0,-44.08,-212.8,-342.0
604205.8967,181.536,-13.42,1003.633,-883.75,-1846.25,-1671.25,-45.6,-214.32,-340.48
604205.9467,178.791,-14.762,1007.781,-1400.0,-2502.5,-586.25,-36.48,-209.76,-340.48
604205.9967,171.776,-19.215,1010.587,-1155.0,-2765.0,2012.5,-44.08,-211.28,-340.48
604206.0467,171.227,-19.825,1009.855,-1715.0,-3648.75,2038.75,-65.36,-209.76,-345.04
604206.0967,172.447,-25.01,1007.842,-1811.25,-3850.0,1015.0,-39.52,-200.64,-345.04
604206.1467,174.216,-15.738,1004.792,-2143.75,-4576.25,560.0,-42.56,-211.28,-332.88
604206.1967,176.412,-26.352,1003.999,-2388.75,-4191.25,1076.25,-47.12,-205.2,-338.96
604206.2467,184.708,-38.857,1013.576,-848.75,-3815.0,1697.5,-56.24,-206.72,-345.04
604206.2967,169.458,-10.309,1007.11,-848.75,-2922.5,113.75,-36.48,-208.24,-337.44
604206.3467,160.369,-13.969,1012.783,-2870.0,-4278.75,-175.0,-33.44,-209.76,-345.04
604206.3967,173.24,-29.097,1005.829,-2196.25,-5215.0,2528.75,-56.24,-205.2,-319.2
604206.4467,172.386,-24.4,1008.879,-1268.75,-3946.25,1732.5,-34.96,-197.6,-351.12
604206.4967,170.434,-25.437,1007.232,-2528.75,-5057.5,962.5,-36.48,-208.24,-345.04
604206.5467,180.804,-29.707,1009.123,-1251.25,-5110.0,411.25,-50.16,-194.56,-335.92
604206.5967,174.948,-24.4,1005.219,-2213.75,-4760.0,140.0,-51.68,-214.32,-335.92
604206.6467,177.815,-33.184,1007.415,-1041.25,-5862.5,638.75,-51.68,-205.2,-351.12
604206.6967,189.161,-20.313,1003.45,-717.5,-4182.5,-945.0,-44.08,-206.72,-338.96
604206.7467,174.521,-18.544,1006.561,-1671.25,-4191.25,-700.0,-53.2,-206.72,-342.0
604206.7967,177.083,-27.389,1008.208,-1636.25,-4278.75,1662.5,-44.08,-209.76,-340.48
604206.8467,171.532,-22.387,1011.868,-1636.25,-3736.25,1715.0,-50.16,-197.6,-342.0
604206.8967,171.227,-30.317,1008.208,-1977.5,-4357.5,1023.75,-42.56,-209.76,-342.0
604206.9467,179.889,-29.951,1005.951,-848.75,-4593.75,393.75,-34.96,-202.16,-355.68
604206.9967,176.473,-18.239,1007.11,-1785.0,-4278.75,-131.25,-54.72,-203.68,-337.44
604207.0467,176.229,-33.245,1006.866,-2187.5,-4908.75,691.25,-44.08,-206.72,-360.24
604207.0967,182.329,-21.96,1009.306,665.0,-2870.0,-603.75,-45.6,-199.12,-337.44
604207.1467,162.626,-5.795,1010.587,-1820.0,-3823.75,-437.5,-45.6,-218.88,-335.92
604207.1967,171.715,-27.633,1008.635,-1907.5,-5013.75,1741.25,-50.16,-209.76,-360.24
604207.2469,176.717,-29.28,1006.622,-1461.25,-4322.5,2056.25,-48.64,-197.6,-361.76
604207.2967,166.591,-21.96,1008.086,-1417.5,-4235.0,358.75,-39.52,-185.44,-345.04
604207.3467,178.852,-32.086,1011.685,-1408.75,-5127.5,-201.25,-44.08,-200.64,-348.08
604207.3967,176.534,-21.838,1004.853,-1522.5,-4418.75,-113.75,-62.32,-212.8,-357.2
604207.4467,171.654,-28.914,1008.086,-1400.0,-5390.0,708.75,-41.04,-197.6,-335.92
604207.4967,184.647,-26.535,1004.853,-498.75,-4182.5,-280.0,-39.52,-214.32,-342.0
604207.5468,174.643,-11.956,1003.877,-1618.75,-3902.5,-1408.75,-34.96,-220.4,-337.44
604207.5967,171.044,-19.215,1010.709,-2012.5,-4305.0,962.5,-44.08,-215.84,-338.96
604207.6467,174.46,-22.57,1007.598,-1400.0,-4025.0,2537.5,-51.68,-205.2,-351.12
604207.6967,172.02,-26.535,1009.916,-1863.75,-4515.0,1671.25,-33.44,-209.76,-340.48
604207.7467,172.447,-31.293,1008.086,-1312.5,-4445.0,218.75,-39.52,-211.28,-334.4
604207.7967,172.325,-21.838,1007.11,-1015.0,-4637.5,-420.0,-34.96,-206.72,-342.0
604207.8467,174.521,-21.899,1007.11,-2292.5,-4348.75,428.75,-59.28,-220.4,-346.56
604207.8967,176.839,-37.454,1010.16,-1286.25,-4208.75,1610.0,-50.16,-208.24,-342.0
604207.9467,173.301,-8.174,1009.489,-105.0,-3176.25,-122.5,-33.44,-214.32,-342.0
604207.9967,164.334,-16.47,1010.038,-3123.75,-4506.25,446.25,-50.16,-197.6,-332.88
604208.0467,164.395,-29.28,1007.659,-2047.5,-4900.0,2310.0,-51.68,-202.16,-334.4
604208.0967,172.691,-27.267,1010.648,-1260.0,-3780.0,1601.25,-27.36,-203.68,-345.04
604208.1467,161.528,-21.106,1008.269,-2047.5,-4847.5,533.75,-47.12,-180.88,-342.0
604208.1967,176.107,-33.794,1010.709,-1120.0,-4917.5,52.5,-42.56,-214.32,-343.52
604208.2467,166.896,-20.008,1009.428,-1907.5,-4961.25,253.75,-57.76,-211.28,-346.56
604208.2967,164.761,-28.304,1009.916,-1400.0,-5652.5,498.75,-31.92,-196.08,-340.48
604208.3467,182.695,-18.422,1006.439,-971.25,-4812.5,52.5,-44.08,-202.16,-343.52
604208.3967,166.53,-14.091,1009.306,-1960.0,-4445.0,-35.0,-38.0,-202.16,-346.56
604208.4467,165.432,-21.533,1009.184,-2266.25,-4882.5,1408.75,-53.2,-203.68,-355.68
604208.4967,171.959,-24.888,1005.28,-1732.5,-4856.25,2178.75,-45.6,-203.68,-343.52
604208.5467,174.826,-29.768,1009.611,-2117.5,-5048.75,1408.75,-34.96,-197.6,-342.0
604208.5967,173.362,-32.147,1006.256,-1400.0,-5048.75,551.25,-47.12,-199.12,-334.4
604208.6467,175.68,-20.679,1006.378,-1977.5,-4996.25,157.5,-39.52,-206.72,-355.68
604208.6967,178.242,-29.951,1002.352,-2161.25,-4418.75,656.25,-38.0,-196.08,-351.12
604208.7467,179.645,-36.661,1011.807,0.0,-3815.0,577.5,-44.08,-202.16,-340.48
604208.7968,170.922,-5.612,1007.476,-901.25,-3325.0,-735.0,-45.6,-205.2,-338.96
604208.8467,165.188,-26.352,1010.099,-2660.0,-4777.5,1408.75,-60.8,-212.8,-352.64
604208.8967,174.826,-28.914,1005.585,-1531.25,-4270.0,2712.5,-28.88,-196.08,-345.04
604208.9467,169.641,-30.988,1009.489,-1400.0,-3062.5,770.0,-27.36,-203.68,-332.88
604208.9967,169.275,-31.903,1010.099,-2397.5,-5276.25,192.5,-54.72,-206.72,-345.04
604209.0467,173.484,-25.498,1009.062,-1146.25,-4060.0,-358.75,-62.32,-217.36,-349.6
604209.0967,164.578,-27.816,1007.659,-1601.25,-5066.25,332.5,-41.04,-203.68,-346.56
604209.1467,176.595,-26.535,1007.354,-210.0,-5031.25,367.5,-50.16,-209.76,-338.96
604209.1967,178.12,-17.69,1010.282,-857.5,-4156.25,-813.75,-48.64,-209.76,-348.08
604209.2467,162.931,-16.348,1007.232,-1933.75,-4156.25,-43.75,-39.52,-203.68,-338.96
604209.2967,167.75,-23.912,1009.123,-1933.75,-4296.25,1627.5,-41.04,-208.24,-329.84
604209.3467,166.774,-27.45,1008.452,-1837.5,-4768.75,2038.75,-42.56,-215.84,-349.6
604209.3967,171.044,-29.585,1005.89,-1916.25,-4760.0,770.0,-42.56,-202.16,-340.48
604209.4467,172.081,-31.11,1011.624,-1373.75,-4558.75,-78.75,-36.48,-212.8,-334.4
604209.4967,169.641,-18.239,1005.585,-2178.75,-4768.75,0.0,-47.12,-203.68,-325.28
604209.5467,174.643,-34.77,1003.877,-1995.0,-4961.25,1216.25,-48.64,-206.72,-346.56
604209.5967,182.756,-36.234,1012.417,507.5,-3508.75,385.0,-34.96,-197.6,-348.08
604209.6467,156.465,-9.638,1008.086,-2170.0,-3780.0,-568.75,-25.84,-221.92,-334.4
604209.6967,166.408,-30.256,1008.696,-1951.25,-4908.75,1671.25,-62.32,-197.6,-335.92
604209.7467,172.63,-29.097,1007.049,-1461.25,-4357.5,2292.5,-45.6,-203.68,-349.6
604209.7967,160.552,-23.668,1008.086,-1968.75,-4357.5,1137.5,-36.48,-208.24,-345.04
604209.8467,168.238,-34.221,1013.027,-2275.0,-5547.5,437.5,-39.52,-211.28,-337.44
604209.8967,169.214,-27.206,1008.208,-1618.75,-4760.0,210.0,-44.08,-203.68,-338.96
604209.9467,169.763,-36.295,1006.927,-1242.5,-5705.0,420.0,-50.16,-200.64,-346.56
604209.9967,182.024,-24.949,1005.219,-148.75,-5145.0,-166.25,-42.56,-199.12,-351.12
604210.0467,174.826,-14.03,1003.755,-1513.75,-3920.0,-883.75,-41.04,-206.72,-334.4
604210.0967,165.249,-16.409,1008.757,-2170.0,-3972.5,350.0,-56.24,-211.28,-337.44
604210.1467,172.264,-25.559,1008.757,-1706.25,-4173.75,2275.0,-47.12,-199.12,-326.8
604210.1967,165.432,-27.938,1010.038,-2117.5,-4445.0,1111.25,-41.04,-209.76,-338.96
604210.2469,172.569,-32.391,1010.038,-1776.25,-4768.75,822.5,-45.6,-214.32,-349.6
604210.2967,168.238,-21.838,1006.927,-1382.5,-4620.0,708.75,-57.76,-196.08,-351.12
604210.3467,165.92,-21.899,1008.391,-2555.0,-4882.5,288.75,-62.32,-191.52,-345.04
604210.3967,181.536,-40.199,1010.404,-997.5,-4768.75,971.25,-51.68,-200.64,-337.44
604210.4467,169.58,-12.871,1008.513,-761.25,-2677.5,-936.25,-60.8,-202.16,-351.12
604210.4967,153.049,-15.982,1008.696,-2388.75,-4331.25,-122.5,-21.28,-200.64,-342.0
604210.5467,172.508,-29.707,1004.548,-1828.75,-4523.75,1942.5,-21.28,-206.72,-337.44
604210.5967,164.334,-28.487,1009.184,-1190.0,-3307.5,1548.75,-28.88,-200.64,-342.0
604210.6467,156.831,-24.705,1011.441,-2310.0,-4707.5,752.5,-38.0,-199.12,-332.88
604210.6967,172.447,-30.866,1012.051,-1618.75,-4488.75,96.25,-51.68,-188.48,-345.04
604210.7467,161.406,-27.145,1010.038,-1846.25,-4838.75,805.0,-39.52,-203.68,-360.24
604210.7967,172.935,-31.354,1008.269,-927.5,-6431.25,1128.75,-50.16,-200.64,-328.32
604210.8467,180.926,-20.557,1005.402,-945.0,-4637.5,-358.75,-33.44,-199.12,-338.96
604210.8967,171.715,-18.3,1007.171,-1557.5,-3893.75,-761.25,-30.4,-191.52,-364.8
604210.9467,167.75,-26.718,1008.94,-2126.25,-4226.25,1505.0,-39.52,-212.8,-335.92
604210.9967,165.859,-28.243,1012.051,-1706.25,-4497.5,2511.25,-36.48,-205.2,-338.96
604211.0467,171.227,-27.572,1007.598,-2091.25,-5215.0,1461.25,-34.96,-202.16,-342.0
604211.0967,165.432,-32.818,1010.282,-1610.0,-4672.5,621.25,-30.4,-196.08,-342.0
604211.1467,165.676,-25.986,1005.585,-2327.5,-4978.75,446.25,-47.12,-205.2,-338.96
604211.1967,173.728,-39.528,1004.853,-1828.75,-5390.0,875.0,-45.6,-202.16,-335.92
604211.2467,176.778,-26.291,1011.38,770.0,-3272.5,-385.0,-36.48,-199.12,-334.4
604211.2967,156.953,-15.494,1009.001,-1487.5,-4068.75,-910.0,-48.64,-186.96,-326.8
604211.3467,171.166,-28.731,1011.441,-2292.5,-5311.25,936.25,-53.2,-206.72,-342.0
604211.3967,172.935,-31.842,1007.598,-1688.75,-4287.5,2135.0,-39.52,-211.28,-335.92
604211.4467,165.31,-25.742,1009.123,-1338.75,-4112.5,971.25,-33.44,-194.56,-345.04
604211.4967,167.018,-36.234,1013.332,-1890.0,-4996.25,577.5,-57.76,-200.64,-338.96
604211.5467,171.105,-26.962,1011.99,-953.75,-4996.25,-52.5,-44.08,-196.08,-338.96
604211.5967,168.543,-33.245,1006.134,-1933.75,-5495.0,52.5,-50.16,-193.04,-343.52
604211.6467,178.242,-34.77,1005.768,-533.75,-5372.5,533.75,-41.04,-203.68,-342.0
604211.6968,178.791,-16.897,1005.463,-752.5,-4278.75,-533.75,-39.52,-200.64,-338.96
604211.7467,166.469,-19.764,1008.391,-2117.5,-3806.25,297.5,-53.2,-208.24,-361.76
604211.7968,170.373,-29.158,1012.173,-1680.0,-4392.5,1645.0,-41.04,-214.32,-357.2
604211.8467,168.177,-27.511,1010.16,-1610.0,-3850.0,1452.5,-47.12,-197.6,-323.76
604211.8967,170.312,-33.672,1008.818,-1452.5,-4296.25,586.25,-47.12,-200.64,-346.56
604211.9467,168.543,-25.315,1007.964,-1163.75,-3858.75,533.75,-53.2,-208.24,-351.12
604211.9967,166.286,-30.5,1005.951,-2432.5,-4593.75,1330.0,-48.64,-208.24,-351.12
604212.0467,178.608,-44.042,1008.696,-1137.5,-4550.0,1732.5,-36.48,-193.04,-346.56
604212.0967,166.347,-13.664,1008.208,-1023.75,-3263.75,-682.5,-44.08,-199.12,-323.76
604212.1467,157.075,-23.729,1009.062,-3045.0,-4873.75,175.0,-50.16,-203.68,-334.4
604212.1967,168.36,-34.77,1009.611,-2108.75,-5206.25,2213.75,-51.68,-196.08,-349.6
604212.2467,167.567,-33.733,1012.051,-665.0,-3587.5,1216.25,-44.08,-197.6,-346.56
604212.2967,156.892,-25.315,1009.062,-2266.25,-5075.0,-157.5,-39.52,-215.84,-338.96
604212.3467,173.423,-34.221,1013.149,-1198.75,-4856.25,-402.5,-44.08,-202.16,-342.0
604212.3967,161.223,-27.572,1008.391,-1601.25,-5188.75,70.0,-62.32,-218.88,-352.64
604212.4467,170.495,-35.441,1006.073,-918.75,-5600.0,271.25,-45.6,-196.08,-349.6
604212.4967,171.898,-21.289,1009.733,-472.5,-4235.0,-682.5,-51.68,-211.28,-343.52
604212.5467,163.907,-17.202,1006.866,-1986.25,-5101.25,-673.75,-53.2,-205.2,-340.48
604212.5967,165.859,-29.585,1014.247,-1583.75,-5040.0,840.0,-50.16,-193.04,-342.0
604212.6467,165.066,-23.912,1009.855,-1680.0,-5162.5,1531.25,-36.48,-208.24,-352.64
604212.6967,168.543,-30.439,1006.622,-2065.0,-5398.75,796.25,-38.0,-196.08,-361.76
604212.7467,172.813,-26.474,1007.964,-1268.75,-5267.5,-140.0,-51.68,-218.88,-329.84
604212.7967,174.765,-25.498,1008.696,-2765.0,-5573.75,-175.0,-41.04,-209.76,-348.08
604212.8467,177.083,-38.125,1005.341,-2003.75,-5013.75,1172.5,-44.08,-211.28,-340.48
604212.8967,174.46,-22.875,1009.55,761.25,-3447.5,-17.5,-42.56,-202.16,-332.88
604212.9467,157.258,-11.529,1010.892,-2318.75,-4130.0,-883.75,-47.12,-203.68,-342.0
604212.9967,165.127,-27.755,1008.391,-2038.75,-5425.0,927.5,-39.52,-194.56,-338.96
604213.0467,171.959,-36.051,1009.489,-1505.0,-4401.25,1662.5,-33.44,-190.0,-338.96
604213.0967,164.639,-27.389,1008.391,-1006.25,-4226.25,831.25,-53.2,-211.28,-342.0
604213.1467,173.423,-34.282,1010.038,-1225.0,-5162.5,-253.75,-56.24,-200.64,-348.08
604213.1967,173.85,-26.901,1007.598,-1093.75,-4550.0,-446.25,-36.48,-205.2,-343.52
604213.2468,171.898,-32.086,1007.354,-743.75,-4812.5,507.5,-44.08,-202.16,-335.92
604213.2967,176.839,-18.422,1004.548,-630.0,-4935.0,-463.75,-41.04,-197.6,-338.96
604213.3467,174.033,-14.213,1009.367,-1662.5,-4401.25,-507.5,-44.08,-211.28,-345.04
604213.3967,169.702,-24.339,1009.123,-1968.75,-4305.0,1303.75,-30.4,-215.84,-346.56
604213.4467,167.567,-27.511,1011.258,-1513.75,-4690.0,2213.75,-39.52,-206.72,-348.08
604213.4967,171.288,-29.28,1010.221,-2038.75,-4366.25,875.0,-54.72,-217.36,-345.04
604213.5467,168.97,-33.611,1010.465,-1128.75,-4427.5,43.75,-50.16,-191.52,-352.64
604213.5967,173.728,-21.411,1008.696,-1461.25,-4830.0,35.0,-41.04,-208.24,-342.0
604213.6467,169.397,-30.195,1004.548,-1881.25,-4690.0,402.5,-28.88,-211.28,-340.48
604213.6967,180.56,-34.038,1010.343,726.25,-4042.5,341.25,-56.24,-205.2,-342.0
604213.7468,166.164,-6.466,1005.951,-708.75,-3193.75,-953.75,-33.44,-200.64,-337.44
604213.7967,163.602,-24.827,1012.051,-2616.25,-4733.75,463.75,-27.36,-211.28,-343.52
604213.8467,171.41,-30.317,1005.341,-1645.0,-5215.0,2213.75,-34.96,-208.24,-346.56
604213.8967,166.835,-24.705,1005.951,-1338.75,-4112.5,1347.5,-47.12,-211.28,-342.0
604213.9467,170.8,-32.879,1008.208,-2633.75,-5477.5,630.0,-42.56,-208.24,-346.56
604213.9967,175.07,-33.489,1010.343,-1085.0,-4523.75,472.5,-51.68,-205.2,-337.44
604214.0467,166.652,-31.537,1007.049,-1496.25,-5180.0,175.0,-48.64,-186.96,-349.6
604214.0967,180.499,-29.707,1005.463,-280.0,-5363.75,-52.5,-51.68,-215.84,-342.0
604214.1467,180.804,-16.226,1003.816,-691.25,-4331.25,-796.25,-47.12,-215.84,-340.48
604214.1967,172.996,-17.141,1008.269,-2187.5,-4121.25,-271.25,-54.72,-205.2,-346.56
604214.2467,166.896,-26.413,1010.343,-1671.25,-4270.0,1627.5,-44.08,-218.88,-349.6
604214.2967,173.362,-23.851,1008.574,-1373.75,-4033.75,2038.75,-59.28,-202.16,-334.4
604214.3467,163.724,-32.269,1010.038,-1610.0,-4541.25,796.25,-48.64,-199.12,-346.56
604214.3967,167.872,-22.387,1006.561,-1470.0,-4900.0,437.5,-36.48,-209.76,-361.76
604214.4467,174.399,-32.696,1006.988,-2511.25,-4480.0,306.25,-34.96,-202.16,-348.08
604214.4967,174.277,-39.04,1007.598,-1653.75,-5013.75,1172.5,-44.08,-208.24,-348.08
604214.5467,175.009,-16.348,1006.378,-78.75,-2730.0,-332.5,-47.12,-203.68,-338.96
604214.5967,165.066,-18.727,1009.062,-2800.0,-5293.75,428.75,-47.12,-197.6,-346.56
604214.6467,176.534,-31.476,1008.452,-1951.25,-4173.75,1251.25,-44.08,-209.76,-342.0
604214.6967,170.068,-26.962,1012.6,-1330.0,-3465.0,1067.5,-50.16,-202.16,-338.96
604214.7467,170.373,-29.524,1009.733,-2353.75,-4830.0,656.25,-47.12,-200.64,-335.92
604214.7968,174.643,-32.513,1012.112,-1198.75,-4287.5,743.75,-36.48,-199.12,-338.96
604214.8467,161.65,-28.487,1006.195,-1531.25,-4917.5,752.5,-36.48,-218.88,-346.56
604214.8967,168.848,-34.587,1006.683,-840.0,-5740.0,245.0,-45.6,-211.28,-348.08
604214.9467,178.974,-15.616,1005.097,-262.5,-3692.5,-1015.0,-56.24,-212.8,-352.64
604214.9967,164.944,-11.651,1006.866,-2266.25,-4261.25,-87.5,-31.92,-202.16,-334.4
604215.0467,163.358,-24.888,1013.393,-2030.0,-4068.75,2205.0,-31.92,-211.28,-328.32
604215.0967,166.103,-24.339,1009.672,-1907.5,-4637.5,2800.0,-48.64,-200.64,-351.12
604215.1467,168.665,-27.999,1007.659,-2441.25,-4646.25,1487.5,-45.6,-194.56,-351.12
604215.1967,164.944,-33.306,1012.478,-1907.5,-4760.0,752.5,-39.52,-188.48,-342.0
604215.2467,168.543,-23.668,1007.72,-2266.25,-4786.25,-122.5,-34.96,-196.08,-348.08
604215.2967,167.079,-37.149,1006.5,-2187.5,-4908.75,682.5,-66.88,-200.64,-349.6
604215.3467,182.024,-34.465,1012.051,1023.75,-3736.25,271.25,-44.08,-206.72,-335.92
604215.3967,162.077,-8.174,1007.781,-2257.5,-4278.75,-953.75,-45.6,-203.68,-343.52
604215.4467,167.811,-25.681,1009.794,-2712.5,-4926.25,463.75,-48.64,-199.12,-349.6
604215.4967,170.251,-30.744,1003.206,-1496.25,-4462.5,2275.0,-53.2,-209.76,-351.12
604215.5467,168.97,-24.705,1005.707,-1286.25,-4130.0,1750.0,-42.56,-191.52,-345.04
604215.5967,168.97,-35.38,1012.356,-2432.5,-5075.0,770.0,-53.2,-208.24,-348.08
604215.6467,169.336,-28.792,1008.513,-1120.0,-4418.75,113.75,-50.16,-211.28,-342.0
604215.6967,163.419,-27.938,1007.598,-1750.0,-4952.5,315.0,-62.32,-199.12,-337.44
604215.7467,172.752,-29.707,1011.197,-315.0,-4900.0,341.25,-42.56,-196.08,-338.96
604215.7967,173.484,-18.361,1006.317,-735.0,-4847.5,-253.75,-33.44,-215.84,-340.48
604215.8467,161.589,-20.923,1007.476,-2450.0,-4226.25,-35.0,-63.84,-212.8,-346.56
604215.8967,168.604,-31.11,1009.916,-1557.5,-4445.0,2117.5,-39.52,-200.64,-346.56
604215.9467,164.273,-26.779,1009.184,-1898.75,-5127.5,2196.25,-34.96,-191.52,-340.48
604215.9967,173.606,-37.027,1007.537,-2065.0,-4777.5,761.25,-34.96,-217.36,-335.92
604216.0467,168.604,-34.77,1009.245,-910.0,-4340.0,253.75,-51.68,-200.64,-342.0
604216.0967,169.336,-24.339,1007.537,-2275.0,-4480.0,-26.25,-44.08,-202.16,-337.44
604216.1467,169.336,-39.894,1012.356,-1470.0,-4523.75,638.75,-38.0,-205.2,-351.12
604216.1967,178.608,-28.731,1008.33,490.0,-3325.0,-236.25,-48.64,-203.68,-337.44
604216.2469,159.088,-19.459,1008.086,-2222.5,-4130.0,-122.5,-48.64,-214.32,-348.08
604216.2967,162.687,-30.195,1005.829,-1583.75,-4515.0,1723.75,-41.04,-196.08,-338.96
604216.3467,168.848,-34.282,1009.245,-1443.75,-3963.75,1338.75,-38.0,-208.24,-338.96
604216.3967,157.685,-25.01,1011.929,-1373.75,-4226.25,-26.25,-44.08,-208.24,-351.12
604216.4467,163.236,-32.757,1010.648,-1776.25,-5215.0,87.5,-28.88,-202.16,-348.08
604216.4967,167.994,-24.705,1008.696,-1058.75,-4567.5,26.25,-34.96,-197.6,-346.56
604216.5467,162.87,-28.121,1008.757,-988.75,-5302.5,455.0,-34.96,-200.64,-343.52
604216.5967,173.789,-23.79,1008.208,-525.0,-4917.5,-183.75,-44.08,-199.12,-334.4
604216.6467,171.837,-14.396,1007.659,-1531.25,-4243.75,-875.0,-48.64,-199.12,-354.16
604216.6967,163.48,-17.202,1007.232,-1750.0,-4287.5,682.5,-39.52,-206.72,-361.76
604216.7467,167.872,-26.535,1005.89,-1785.0,-4427.5,2607.5,-31.92,-202.16,-331.36
604216.7967,165.737,-28.365,1011.502,-2170.0,-4628.75,2056.25,-42.56,-208.24,-329.84
604216.8467,166.103,-30.622,1012.783,-2108.75,-4462.5,1093.75,-33.44,-193.04,-354.16
604216.8967,165.127,-26.047,1004.487,-1697.5,-4716.25,822.5,-22.8,-200.64,-348.08
604216.9467,170.373,-34.465,1004.304,-2362.5,-4602.5,1487.5,-42.56,-217.36,-334.4
604216.9967,175.558,-44.469,1009.184,-1286.25,-4576.25,1855.0,-57.76,-205.2,-343.52
604217.0467,170.739,-17.507,1007.171,-1023.75,-3018.75,-787.5,-42.56,-205.2,-342.0
604217.0967,151.951,-22.631,1009.977,-2625.0,-3718.75,-735.0,-38.0,-193.04,-346.56
604217.1467,159.088,-34.404,1008.574,-1373.75,-4707.5,1741.25,-41.04,-191.52,-357.2
604217.1967,164.517,-37.332,1011.685,-1050.0,-4235.0,1338.75,-54.72,-211.28,-338.96
604217.2467,157.563,-24.461,1004.731,-1618.75,-5031.25,-8.75,-53.2,-203.68,-340.48
604217.2967,166.469,-35.319,1011.868,-1102.5,-4865.0,-796.25,-54.72,-200.64,-349.6
604217.3467,163.602,-22.875,1011.075,-988.75,-4602.5,-516.25,-51.68,-211.28,-335.92
604217.3967,164.09,-32.94,1008.391,-752.5,-5477.5,358.75,-54.72,-205.2,-345.04
604217.4467,176.168,-19.398,1007.11,-148.75,-4217.5,-630.0,-42.56,-193.04,-354.16
604217.4967,166.713,-11.163,1005.768,-1382.5,-3876.25,-1636.25,-28.88,-202.16,-338.96
604217.5467,159.881,-19.703,1010.709,-2003.75,-3990.0,875.0,-33.44,-208.24,-352.64
604217.5967,161.223,-20.008,1010.953,-1653.75,-4567.5,2310.0,-45.6,-212.8,-340.48
604217.6467,162.016,-26.474,1010.648,-2170.0,-4952.5,2187.5,-30.4,-211.28,-340.48
604217.6967,166.408,-28.426,1007.964,-1627.5,-4567.5,910.0,-54.72,-179.36,-329.84
604217.7467,166.164,-22.57,1008.147,-2511.25,-4532.5,481.25,-47.12,-224.96,-352.64
604217.7968,163.541,-36.417,1002.291,-2100.0,-4357.5,988.75,-44.08,-200.64,-343.52
604217.8467,174.216,-38.918,1011.746,-52.5,-3876.25,402.5,-22.8,-202.16,-346.56
604217.8967,158.661,-19.703,1013.698,-778.75,-3290.0,0.0,-47.12,-206.72,-340.48
604217.9467,160.308,-24.583,1008.696,-2607.5,-5573.75,735.0,-45.6,-185.44,-342.0
604217.9967,167.445,-29.524,1005.158,-2135.0,-5022.5,1382.5,-27.36,-206.72,-360.24
604218.0467,162.26,-32.025,1008.879,-901.25,-3753.75,1067.5,-47.12,-208.24,-352.64
604218.0967,167.14,-31.598,1010.953,-2563.75,-5162.5,708.75,-39.52,-202.16,-337.44
604218.1467,170.678,-32.513,1011.38,-1128.75,-4620.0,586.25,-57.76,-208.24,-345.04
604218.1967,155.184,-31.354,1006.561,-1400.0,-5040.0,822.5,-36.48,-208.24,-342.0
604218.2467,164.883,-31.781,1009.001,-910.0,-5670.0,175.0,-25.84,-200.64,-340.48
604218.2967,175.009,-21.716,1005.341,-875.0,-4550.0,-1006.25,-47.12,-200.64,-338.96
604218.3467,162.626,-19.154,1007.72,-1968.75,-3946.25,-70.0,-57.76,-209.76,-338.96
604218.3967,163.236,-26.901,1014.613,-1653.75,-3902.5,1645.0,-36.48,-205.2,-334.4
604218.4467,164.151,-27.999,1006.683,-1855.0,-4777.5,1321.25,-39.52,-208.24,-343.52
604218.4967,167.079,-32.208,1006.134,-2310.0,-4690.0,586.25,-57.76,-212.8,-334.4
604218.5467,166.042,-33.733,1007.171,-1015.0,-4182.5,953.75,-54.72,-203.68,-343.52
604218.5967,166.652,-22.265,1007.232,-2756.25,-4410.0,323.75,-47.12,-190.0,-343.52
604218.6467,163.236,-38.674,1008.452,-2213.75,-4427.5,1023.75,-31.92,-202.16,-334.4
604218.6967,170.007,-27.572,1012.234,271.25,-3106.25,-43.75,-47.12,-202.16,-348.08
604218.7467,145.973,-17.324,1008.635,-2458.75,-5022.5,-805.0,-24.32,-200.64,-348.08
604218.7967,162.687,-28.243,1009.184,-2458.75,-5661.25,778.75,-54.72,-209.76,-332.88
604218.8467,168.97,-30.866,1007.232,-1181.25,-4305.0,2283.75,-41.04,-197.6,-343.52
604218.8967,160.003,-23.058,1007.659,-1583.75,-3596.25,1478.75,-44.08,-196.08,-358.72
604218.9467,167.445,-37.271,1015.955,-2108.75,-5031.25,1102.5,-28.88,-186.96,-337.44
604218.9967,162.016,-29.768,1007.415,-1435.0,-4742.5,297.5,-21.28,-196.08,-354.16
604219.0467,163.114,-36.173,1009.55,-1452.5,-5381.25,857.5,-51.68,-205.2,-354.16
604219.0967,173.118,-29.158,1004.426,-70.0,-4935.0,8.75,-42.56,-200.64,-349.6
604219.1467,160.491,-17.324,1011.563,-971.25,-4208.75,-1041.25,-34.96,-205.2,-351.12
604219.1967,162.26,-19.337,1009.489,-2021.25,-4523.75,-113.75,-39.52,-206.72,-342.0
604219.2469,157.868,-26.413,1012.966,-1680.0,-4628.75,1925.0,-54.72,-199.12,-349.6
604219.2967,164.212,-26.413,1009.977,-1785.0,-5250.0,2161.25,-45.6,-202.16,-337.44
604219.3468,166.591,-36.356,1010.953,-1758.75,-4716.25,1216.25,-50.16,-185.44,-348.08
604219.3967,163.175,-23.241,1006.744,-1846.25,-5433.75,166.25,-41.04,-209.76,-340.48
604219.4467,169.519,-33.245,1006.134,-3053.75,-5643.75,-70.0,-36.48,-218.88,-357.2
604219.4967,186.965,-37.332,1006.927,-481.25,-4418.75,805.0,-33.44,-208.24,-349.6
604219.5467,175.802,-19.642,1009.916,-393.75,-2248.75,-288.75,-33.44,-203.68,-329.84
604219.5967,151.768,-17.69,1010.892,-2362.5,-4760.0,-105.0,-31.92,-209.76,-361.76
604219.6467,161.772,-27.633,1006.866,-1837.5,-4436.25,2170.0,-48.64,-214.32,-351.12
604219.6967,165.432,-31.964,1010.587,-1505.0,-3893.75,1820.0,-31.92,-197.6,-349.6
604219.7467,157.807,-28.487,1010.343,-2336.25,-4733.75,787.5,-44.08,-196.08,-343.52
604219.7967,167.872,-31.72,1010.587,-1583.75,-4576.25,253.75,-54.72,-208.24,-338.96
604219.8467,157.319,-26.169,1007.842,-1881.25,-4462.5,752.5,-41.04,-199.12,-335.92
604219.8967,161.345,-34.831,1011.502,-1111.25,-5731.25,1190.0,-36.48,-200.64,-331.36
604219.9467,171.837,-26.474,1005.89,-717.5,-5258.75,140.0,-30.4,-209.76,-340.48
604219.9967,162.016,-18.605,1009.062,-1925.0,-3867.5,-306.25,-47.12,-203.68,-351.12
604220.0467,154.208,-30.012,1012.295,-2021.25,-6728.75,2563.75,-47.12,-203.68,-352.64
604220.0967,173.789,-28.182,1006.378,-2082.5,-5888.75,2966.25,-31.92,-197.6,-340.48
604220.1467,168.177,-36.905,1007.11,-2336.25,-4480.0,498.75,-39.52,-203.68,-337.44
604220.1967,166.042,-37.21,1008.574,-1846.25,-4751.25,78.75,-45.6,-202.16,-345.04
604220.2467,165.859,-28.121,1006.988,-1890.0,-4042.5,131.25,-33.44,-188.48,-346.56
604220.2967,168.848,-41.48,1006.744,-2082.5,-4882.5,1330.0,-38.0,-197.6,-343.52
604220.3467,178.425,-46.116,1012.051,-455.0,-4296.25,682.5,-36.48,-209.76,-352.64
604220.3967,158.783,-19.703,1010.038,-1767.5,-4445.0,-822.5,-68.4,-196.08,-345.04
604220.4467,152.561,-35.929,1015.955,-2213.75,-6256.25,630.0,-47.12,-209.76,-354.16
604220.4967,161.955,-34.587,1005.707,-988.75,-6851.25,2905.0,-47.12,-214.32,-343.52
604220.5467,163.053,-24.644,1011.075,-936.25,-6160.0,1601.25,-38.0,-209.76,-342.0
604220.5967,169.031,-33.123,1006.744,-2406.25,-6790.0,446.25,-53.2,-193.04,-316.16
604220.6467,171.105,-30.134,1011.685,-2170.0,-6685.0,-253.75,-38.0,-196.08,-342.0
604220.6967,177.083,-39.65,1007.781,-1890.0,-5145.0,761.25,-47.12,-203.68,-338.96
604220.7467,175.314,-34.465,1006.988,-857.5,-5696.25,1225.0,-48.64,-209.76,-348.08
604220.7969,181.536,-26.657,1002.84,-1163.75,-3797.5,-498.75,-56.24,-214.32,-331.36
604220.8468,165.859,-30.134,1013.149,-2572.5,-4786.25,-980.0,-39.52,-191.52,-355.68
604220.8967,176.229,-39.589,1005.646,-656.25,-4716.25,1006.25,-38.0,-196.08,-337.44
604220.9467,176.351,-34.709,1007.354,-1828.75,-5267.5,315.0,-53.2,-196.08,-343.52
604220.9967,166.347,-33.428,1007.781,-901.25,-4550.0,595.0,-54.72,-203.68,-338.96
604221.0467,180.438,-30.927,1009.977,-1671.25,-3963.75,105.0,-50.16,-193.04,-342.0
604221.0968,166.469,-27.267,1007.659,-2528.75,-5066.25,253.75,-33.44,-203.68,-346.56
604221.1467,181.78,-41.907,1008.818,-1837.5,-6273.75,-17.5,-41.04,-208.24,-329.84
604221.1967,170.861,-24.644,1013.698,-402.5,-6037.5,-673.75,-56.24,-196.08,-335.92
604221.2467,171.227,-21.167,1003.572,-1828.75,-7560.0,288.75,-50.16,-196.08,-348.08
604221.2967,184.83,-31.72,1004.914,-1338.75,-8207.5,1986.25,-34.96,-199.12,-351.12
604221.3467,202.032,-42.334,1003.633,-2843.75,-4847.5,980.0,-53.2,-197.6,-345.04
604221.3967,189.222,-39.162,1004.67,-1163.75,-3675.0,1338.75,-56.24,-193.04,-337.44
604221.4467,188.795,-33.794,1003.145,-1242.5,-3832.5,787.5,-41.04,-202.16,-342.0
604221.4967,177.022,-31.415,1009.794,-1645.0,-4532.5,612.5,-45.6,-203.68,-342.0
604221.5467,182.756,-34.404,1007.903,-1373.75,-5932.5,341.25,-74.48,-202.16,-346.56
604221.5967,193.126,-20.801,1004.06,-1968.75,-4095.0,-1496.25,-62.32,-200.64,-346.56
604221.6467,184.83,-20.435,1004.304,-2800.0,-3893.75,-1085.0,-47.12,-205.2,-331.36
604221.6967,182.146,-35.502,1012.173,-3045.0,-3491.25,1041.25,-54.72,-205.2,-329.84
604221.7467,176.961,-32.574,1009.733,-2135.0,-4768.75,1741.25,-65.36,-202.16,-329.84
604221.7967,190.32,-38.125,1007.659,-2196.25,-3176.25,1373.75,-41.04,-188.48,-342.0
604221.8467,184.708,-36.356,1003.084,-1312.5,-4637.5,1417.5,-51.68,-197.6,-338.96
604221.8967,182.451,-35.624,1008.269,-1723.75,-4917.5,1758.75,-45.6,-191.52,-335.92
604221.9467,207.522,-49.837,1005.097,-1470.0,-3981.25,831.25,-50.16,-190.0,-354.16
604221.9967,186.111,-27.511,1006.073,0.0,-918.75,-1190.0,-44.08,-188.48,-343.52
604222.0467,171.837,-25.193,1008.94,-1268.75,-1067.5,-1198.75,-31.92,-209.76,-351.12
604222.0967,176.9,-38.918,1003.206,-1855.0,-3386.25,1382.5,-45.6,-193.04,-338.96
604222.1467,188.856,-46.055,1004.121,-420.0,-1995.0,2100.0,-62.32,-209.76,-338.96
604222.1967,171.654,-30.378,1004.304,-586.25,87.5,52.5,-36.48,-193.04,-348.08
604222.2467,172.142,-38.186,1014.674,-918.75,-525.0,-1583.75,-54.72,-203.68,-335.92
604222.2967,160.369,-31.781,1010.465,-997.5,-647.5,-1592.5,-50.16,-203.68,-354.16
604222.3468,150.548,-28.731,1007.171,-656.25,-2100.0,-717.5,-45.6,-196.08,-342.0
604222.3967,161.589,-26.84,1010.343,96.25,-3001.25,-280.0,-33.44,-206.72,-343.52
604222.4467,155.733,-16.714,1009.855,-813.75,-2248.75,-1041.25,-18.24,-200.64,-334.4
604222.4967,147.62,-19.764,1010.648,-2502.5,-3972.5,-113.75,-38.0,-203.68,-351.12
604222.5467,150.121,-24.583,1014.003,-1750.0,-3718.75,1338.75,-36.48,-203.68,-357.2
604222.5967,151.524,-28.182,1010.465,-1723.75,-4786.25,1531.25,-44.08,-203.68,-334.4
604222.6467,151.28,-23.607,1008.635,-1723.75,-4576.25,35.0,-31.92,-208.24,-352.64
604222.6967,156.953,-27.084,1007.049,-2651.25,-4821.25,157.5,-36.48,-202.16,-343.52
604222.7467,160.552,-43.432,1012.112,-1006.25,-4287.5,936.25,-51.68,-194.56,-354.16
604222.7967,161.406,-34.526,1015.223,1085.0,-3482.5,-700.0,-33.44,-197.6,-366.32
604222.8467,146.766,-13.054,1012.356,-2327.5,-3920.0,-1566.25,-31.92,-194.56,-345.04
604222.8967,145.424,-39.162,1009.794,-2126.25,-6037.5,735.0,-41.04,-208.24,-351.12
604222.9467,165.005,-36.722,1009.123,-507.5,-5145.0,1400.0,-34.96,-197.6,-349.6
604222.9967,152.317,-25.01,1010.648,-1785.0,-4690.0,-140.0,-34.96,-209.76,-351.12
604223.0467,156.526,-35.014,1012.112,-1601.25,-5477.5,-1015.0,-45.6,-208.24,-345.04
604223.0967,152.5,-27.816,1012.478,-770.0,-4313.75,-761.25,-57.76,-206.72,-351.12
604223.1467,151.524,-27.633,1012.6,-411.25,-5941.25,-568.75,-19.76,-196.08,-357.2
604223.1967,162.077,-22.875,1009.611,140.0,-5766.25,-1400.0,-28.88,-206.72,-349.6
604223.2467,155.916,-8.479,1008.696,-770.0,-4672.5,-2773.75,-56.24,-203.68,-337.44
604223.2967,156.465,-13.542,1012.783,-1767.5,-5696.25,-726.25,-36.48,-205.2,-332.88
604223.3467,160.186,-17.385,1011.807,-1513.75,-5040.0,1181.25,-31.92,-194.56,-335.92
604223.3967,159.088,-19.093,1012.905,-1601.25,-5958.75,2091.25,-39.52,-208.24,-337.44
604223.4467,160.857,-13.786,1008.574,-1986.25,-5906.25,918.75,-27.36,-200.64,-345.04
604223.4967,164.578,-26.657,1003.694,-3158.75,-5740.0,708.75,-42.56,-199.12,-349.6
604223.5467,175.497,-34.465,1013.271,-761.25,-5530.0,971.25,-28.88,-203.68,-354.16
604223.5967,168.909,-14.884,1005.829,-787.5,-3753.75,560.0,-47.12,-199.12,-335.92
604223.6467,156.465,-20.069,1010.404,-3123.75,-5608.75,936.25,-28.88,-215.84,-345.04
604223.6967,165.432,-30.561,1006.317,-2546.25,-5810.0,1767.5,-42.56,-202.16,-338.96
604223.7467,167.872,-27.694,1008.635,-1505.0,-4226.25,1767.5,-24.32,-205.2,-349.6
604223.7969,164.822,-29.768,1010.892,-3080.0,-5486.25,1058.75,-45.6,-203.68,-337.44
604223.8467,169.824,-33.794,1013.027,-1732.5,-4978.75,1321.25,-45.6,-209.76,-338.96
604223.8968,160.003,-33.855,1010.404,-1645.0,-5451.25,1233.75,-45.6,-205.2,-348.08
604223.9467,166.957,-33.794,1005.89,-778.75,-6195.0,131.25,-44.08,-188.48,-329.84
604223.9967,184.525,-19.581,1006.195,-735.0,-4690.0,-1198.75,-30.4,-211.28,-332.88
604224.0467,163.48,-19.276,1006.073,-1890.0,-4296.25,350.0,-38.0,-214.32,-337.44
604224.0967,168.97,-26.657,1006.134,-1793.75,-4655.0,1977.5,-41.04,-209.76,-343.52
604224.1467,170.983,-25.071,1009.123,-1688.75,-3360.0,2047.5,-38.0,-200.64,-352.64
604224.1967,166.591,-26.108,1010.343,-1426.25,-4173.75,1400.0,-39.52,-208.24,-361.76
604224.2467,168.604,-24.156,1008.757,-2607.5,-4445.0,787.5,-47.12,-202.16,-360.24
604224.2967,165.432,-35.868,1007.476,-2318.75,-4287.5,1268.75,-50.16,-205.2,-352.64
604224.3467,176.229,-40.138,1011.319,-498.75,-4138.75,1575.0,-33.44,-218.88,-346.56
604224.3967,151.036,-12.871,1009.794,-857.5,-2353.75,157.5,-39.52,-199.12,-322.24
604224.4467,153.781,-28.487,1009.916,-2878.75,-4690.0,997.5,-31.92,-199.12,-348.08
604224.4967,161.589,-34.221,1011.136,-2030.0,-4488.75,2161.25,-31.92,-203.68,-340.48
604224.5467,156.16,-26.23,1006.561,-1636.25,-4217.5,1601.25,-36.48,-211.28,-348.08
604224.5967,162.809,-32.879,1009.123,-2625.0,-5363.75,1032.5,-51.68,-196.08,-326.8
604224.6467,164.029,-34.282,1010.648,-1085.0,-4165.0,533.75,-41.04,-200.64,-349.6
604224.6967,158.051,-34.343,1006.683,-1741.25,-4908.75,140.0,-25.84,-203.68,-352.64
604224.7467,167.323,-36.417,1011.502,-507.5,-5267.5,245.0,-36.48,-211.28,-352.64
604224.7967,163.968,-18.3,1007.232,-560.0,-3841.25,-831.25,-36.48,-200.64,-340.48
604224.8467,160.918,-20.435,1008.513,-1933.75,-4646.25,420.0,-33.44,-199.12,-331.36
604224.8967,162.626,-27.572,1011.319,-1907.5,-4270.0,1671.25,-44.08,-200.64,-346.56
604224.9467,157.441,-26.413,1009.733,-1898.75,-4462.5,1513.75,-33.44,-212.8,-361.76
604224.9967,159.21,-30.134,1009.062,-1811.25,-5092.5,1347.5,-42.56,-208.24,-338.96
604225.0467,163.358,-25.498,1009.306,-2056.25,-4882.5,516.25,-30.4,-188.48,-342.0
604225.0967,163.968,-40.138,1006.012,-2065.0,-4978.75,1330.0,-25.84,-200.64,-351.12
604225.1467,175.985,-45.018,1012.6,-437.5,-4567.5,612.5,-24.32,-212.8,-351.12
604225.1967,159.454,-13.115,1008.635,-927.5,-2712.5,-1041.25,-34.96,-188.48,-340.48
604225.2467,153.415,-21.228,1013.637,-2642.5,-4497.5,306.25,-34.96,-196.08,-334.4
604225.2967,160.003,-32.33,1008.635,-1793.75,-4471.25,2572.5,-50.16,-206.72,-348.08
604225.3469,155.916,-32.879,1008.818,-1102.5,-3762.5,1855.0,-54.72,-185.44,-345.04
604225.3967,158.905,-28.853,1009.184,-2388.75,-5180.0,761.25,-45.6,-202.16,-352.64
604225.4468,165.249,-31.293,1010.709,-1067.5,-4025.0,-297.5,-48.64,-196.08,-346.56
604225.4967,161.467,-32.391,1008.574,-1540.0,-4515.0,385.0,-39.52,-212.8,-351.12
604225.5467,164.639,-32.94,1010.099,-778.75,-5171.25,778.75,-16.72,-200.64,-340.48
604225.5967,168.177,-22.021,1007.293,-962.5,-3657.5,-315.0,-36.48,-205.2,-348.08
604225.6467,157.258,-18.91,1007.659,-2135.0,-4243.75,-131.25,-41.04,-206.72,-334.4
604225.6967,161.772,-36.173,1009.672,-1863.75,-3578.75,1758.75,-39.52,-215.84,-349.6
604225.7467,159.942,-31.781,1009.855,-1618.75,-4208.75,1662.5,-31.92,-194.56,-342.0
604225.7967,156.099,-34.526,1013.088,-1487.5,-4121.25,1023.75,-21.28,-190.0,-354.16
604225.8467,160.125,-26.901,1008.818,-1312.5,-4165.0,-113.75,-34.96,-211.28,-345.04
604225.8967,157.868,-26.291,1008.147,-2703.75,-4051.25,-70.0,-48.64,-202.16,-335.92
604225.9467,165.066,-43.981,1011.502,-726.25,-4523.75,1365.0,-36.48,-203.68,-348.08
604225.9967,156.343,-11.163,1008.025,-472.5,-2922.5,-341.25,-33.44,-208.24,-355.68
604226.0467,147.803,-18.91,1009.428,-2686.25,-4313.75,-122.5,-53.2,-202.16,-355.68
604226.0967,156.404,-36.234,1007.598,-1653.75,-4357.5,2318.75,-30.4,-197.6,-354.16
604226.1467,158.6,-31.659,1014.369,-1093.75,-3491.25,1496.25,-41.04,-199.12,-340.48
604226.1967,147.01,-28.853,1009.855,-997.5,-4182.5,1636.25,-48.64,-200.64,-346.56
604226.2467,164.578,-33.916,1012.966,-1251.25,-4620.0,525.0,-48.64,-203.68,-351.12
604226.2967,154.574,-26.779,1011.685,-1636.25,-3771.25,-341.25,-41.04,-194.56,-351.12
604226.3467,152.683,-31.842,1008.147,-1251.25,-5180.0,726.25,-44.08,-206.72,-345.04
604226.3967,163.236,-23.058,1006.561,-717.5,-3928.75,-157.5,-34.96,-208.24,-355.68
604226.4467,149.633,-18.422,1008.879,-1750.0,-3955.0,-175.0,-28.88,-191.52,-345.04
604226.4967,150.853,-29.951,1009.977,-2021.25,-4313.75,1548.75,-53.2,-202.16,-338.96
604226.5467,153.354,-31.11,1013.881,-1793.75,-4410.0,1898.75,-36.48,-205.2,-335.92
604226.5967,152.866,-32.452,1010.404,-1933.75,-4707.5,997.5,-36.48,-208.24,-348.08
604226.6467,157.319,-31.476,1006.805,-1312.5,-4856.25,183.75,-33.44,-202.16,-345.04
604226.6967,159.576,-24.034,1009.245,-2003.75,-4681.25,43.75,-47.12,-199.12,-349.6
604226.7467,153.842,-40.321,1008.33,-2178.75,-5503.75,1636.25,-42.56,-208.24,-338.96
604226.7967,166.896,-42.151,1010.526,17.5,-4760.0,971.25,-39.52,-200.64,-348.08
604226.8467,151.28,-14.823,1008.269,-1986.25,-3500.0,-805.0,-50.16,-205.2,-354.16
604226.8967,147.254,-35.014,1008.696,-2266.25,-4383.75,1163.75,-33.44,-203.68,-348.08
604226.9467,156.221,-39.711,1011.563,-1260.0,-4462.5,2345.0,-39.52,-200.64,-337.44
604226.9968,146.705,-24.4,1010.282,-1093.75,-4480.0,813.75,-57.76,-197.6,-345.04
604227.0468,155.794,-37.027,1010.709,-1618.75,-5372.5,26.25,-45.6,-206.72,-342.0
604227.0967,156.648,-30.012,1009.123,-1076.25,-4646.25,-96.25,-30.4,-212.8,-342.0
604227.1467,153.781,-32.147,1012.295,-1382.5,-5302.5,533.75,-47.12,-215.84,-349.6
604227.1967,164.273,-32.025,1008.025,-770.0,-5057.5,875.0,-42.56,-202.16,-357.2
604227.2467,160.552,-22.753,1011.624,-1207.5,-4033.75,-437.5,-41.04,-214.32,-345.04
604227.2968,153.293,-24.278,1010.709,-1872.5,-4296.25,253.75,-51.68,-190.0,-342.0
604227.3467,157.014,-29.341,1009.916,-1872.5,-4103.75,1338.75,-34.96,-221.92,-338.96
604227.3967,152.378,-31.659,1011.258,-1426.25,-4270.0,1505.0,-44.08,-191.52,-343.52
604227.4467,155.733,-31.903,1009.428,-1758.75,-4383.75,778.75,-38.0,-206.72,-328.32
604227.4967,152.561,-28.914,1010.221,-901.25,-3806.25,-157.5,-33.44,-197.6,-340.48
604227.5467,154.696,-27.023,1010.648,-2450.0,-4278.75,96.25,-33.44,-197.6,-346.56
604227.5967,153.903,-36.478,1011.258,-2091.25,-5092.5,1286.25,-39.52,-200.64,-337.44
604227.6467,160.247,-25.925,1010.038,297.5,-3123.75,-26.25,-28.88,-208.24,-342.0
604227.6967,143.716,-19.52,1010.648,-2695.0,-4987.5,96.25,-36.48,-217.36,-354.16
604227.7467,152.134,-30.805,1005.219,-2353.75,-4926.25,1076.25,-51.68,-209.76,-342.0
604227.7967,156.16,-32.574,1009.489,-1190.0,-3535.0,1610.0,-27.36,-183.92,-338.96
604227.8467,145.241,-23.302,1012.051,-1680.0,-3937.5,1400.0,-34.96,-211.28,-352.64
604227.8967,157.868,-37.027,1012.6,-2038.75,-4541.25,560.0,-31.92,-203.68,-349.6
604227.9467,143.289,-29.707,1009.977,-1382.5,-4130.0,875.0,-38.0,-197.6,-352.64
604227.9967,147.864,-36.417,1012.295,-1286.25,-5503.75,463.75,-27.36,-203.68,-338.96
604228.0467,161.589,-24.095,1009.672,-682.5,-4436.25,-665.0,-53.2,-203.68,-331.36
604228.0967,148.23,-17.995,1009.367,-1461.25,-3753.75,-603.75,-51.68,-202.16,-348.08
604228.1467,152.439,-24.217,1011.502,-1925.0,-4200.0,1470.0,-38.0,-202.16,-355.68
604228.1967,146.644,-27.389,1011.563,-1933.75,-3841.25,2152.5,-31.92,-211.28,-352.64
604228.2467,146.705,-30.439,1011.258,-2073.75,-4620.0,1076.25,-36.48,-205.2,-343.52
604228.2967,143.899,-31.476,1011.319,-1645.0,-4480.0,507.5,-48.64,-185.44,-332.88
604228.3467,147.803,-25.864,1009.489,-2240.0,-4795.0,341.25,-30.4,-182.4,-348.08
604228.3967,146.644,-37.027,1009.794,-2511.25,-5136.25,603.75,-39.52,-202.16,-348.08
604228.4467,167.933,-43.676,1012.051,-420.0,-5022.5,490.0,-41.04,-197.6,-325.28
604228.4967,152.317,-22.082,1008.025,-542.5,-3018.75,-726.25,-45.6,-194.56,-331.36
604228.5469,143.594,-24.522,1010.892,-3176.25,-5757.5,-525.0,-34.96,-205.2,-354.16
604228.5967,150.67,-35.319,1011.868,-1723.75,-5197.5,1627.5,-33.44,-193.04,-338.96
604228.6467,150.975,-32.269,1013.21,-1155.0,-4576.25,1715.0,-31.92,-193.04,-345.04
604228.6967,148.657,-33.428,1012.051,-2441.25,-6667.5,551.25,-36.48,-208.24,-340.48
604228.7467,162.687,-38.003,1013.576,-1776.25,-5731.25,-236.25,-42.56,-197.6,-348.08
604228.7967,148.291,-35.197,1009.977,-1312.5,-4830.0,218.75,-44.08,-205.2,-334.4
604228.8467,161.772,-33.733,1008.208,70.0,-6510.0,-271.25,-41.04,-206.72,-340.48
604228.8967,169.153,-19.703,1008.086,-428.75,-5285.0,-1382.5,-34.96,-203.68,-348.08
604228.9467,155.855,-24.644,1005.951,-2187.5,-5468.75,463.75,-41.04,-206.72,-342.0
604228.9967,165.554,-28.67,1008.94,-1190.0,-2633.75,1767.5,-45.6,-203.68,-355.68
604229.0467,155.611,-28.365,1013.576,-1662.5,-3683.75,1601.25,-44.08,-202.16,-337.44
604229.0967,149.45,-31.232,1008.818,-2353.75,-4996.25,1163.75,-38.0,-209.76,-354.16
604229.1467,156.526,-32.818,1011.441,-2021.25,-5005.0,1347.5,-25.84,-211.28,-342.0
604229.1967,151.585,-29.036,1006.439,-2476.25,-5328.75,770.0,-48.64,-194.56,-345.04
604229.2467,163.846,-45.323,1007.964,-1925.0,-5565.0,682.5,-51.68,-191.52,-338.96
604229.2967,167.75,-37.515,1012.112,883.75,-3132.5,-236.25,-24.32,-205.2,-345.04
604229.3467,139.141,-13.298,1010.77,-1855.0,-4480.0,-708.75,-44.08,-199.12,-349.6
604229.3967,155.733,-26.352,1010.953,-2782.5,-5433.75,341.25,-63.84,-200.64,-360.24
604229.4467,158.478,-36.417,1007.781,-1583.75,-4882.5,2371.25,-36.48,-183.92,-343.52
604229.4967,148.047,-31.476,1006.622,-2082.5,-4873.75,1085.0,-50.16,-193.04,-346.56
604229.5467,162.565,-38.491,1013.332,-2266.25,-5302.5,743.75,-39.52,-179.36,-351.12
604229.5967,152.5,-31.781,1011.258,-1557.5,-5153.75,411.25,-39.52,-200.64,-352.64
604229.6467,159.881,-33.367,1005.646,-1645.0,-5232.5,271.25,-38.0,-215.84,-348.08
604229.6967,168.909,-32.147,1011.868,-630.0,-5460.0,52.5,-54.72,-205.2,-349.6
604229.7467,156.099,-18.727,1007.476,-1365.0,-3526.25,-665.0,-38.0,-202.16,-346.56
604229.7967,155.916,-23.485,1011.075,-2091.25,-4480.0,700.0,-38.0,-205.2,-349.6
604229.8467,154.94,-31.476,1011.624,-1513.75,-4375.0,2292.5,-41.04,-200.64,-346.56
604229.8967,157.807,-32.269,1009.611,-2065.0,-4611.25,1382.5,-57.76,-197.6,-351.12
604229.9467,156.587,-37.21,1009.55,-1960.0,-4602.5,603.75,-28.88,-206.72,-351.12
604229.9967,155.489,-30.927,1009.306,-1758.75,-4733.75,280.0,-38.0,-196.08,-355.68
604230.0467,162.199,-31.659,1011.624,-2581.25,-5040.0,638.75,-42.56,-206.72,-338.96
604230.0969,164.029,-48.129,1011.929,-1120.0,-4532.5,1093.75,-41.04,-208.24,-351.12
604230.1467,154.391,-15.372,1010.648,-761.25,-3788.75,-490.0,-48.64,-200.64,-343.52
604230.1967,149.267,-20.984,1009.123,-3062.5,-4497.5,-192.5,-38.0,-197.6,-342.0
604230.2467,157.929,-40.26,1009.672,-1382.5,-4935.0,2476.25,-51.68,-203.68,-351.12
604230.2967,159.21,-35.38,1010.16,-1050.0,-4200.0,1977.5,-28.88,-211.28,-335.92
604230.3467,148.779,-33.611,1009.977,-2852.5,-5013.75,315.0,-38.0,-196.08,-332.88
604230.3967,163.419,-38.735,1008.635,-533.75,-4760.0,131.25,-53.2,-206.72,-340.48
604230.4467,157.197,-27.511,1007.537,-1837.5,-4812.5,210.0,-47.12,-199.12,-343.52
604230.4967,160.796,-39.345,1011.807,-708.75,-5206.25,743.75,-39.52,-193.04,-343.52
604230.5467,160.857,-21.594,1004.487,-945.0,-4156.25,-708.75,-38.0,-205.2,-346.56
604230.5967,155.733,-20.862,1007.72,-2082.5,-4217.5,-1058.75,-25.84,-203.68,-335.92
604230.6467,155.794,-32.818,1010.465,-1566.25,-4322.5,1863.75,-51.68,-200.64,-355.68
604230.6967,154.757,-30.927,1010.77,-1303.75,-4252.5,2537.5,-51.68,-214.32,-338.96
604230.7467,154.757,-35.38,1013.271,-1995.0,-4576.25,1023.75,-38.0,-218.88,-335.92
604230.7967,156.587,-30.073,1009.55,-927.5,-4620.0,131.25,-44.08,-202.16,-349.6
604230.8467,154.513,-29.158,1011.075,-2205.0,-5092.5,-218.75,-42.56,-206.72,-345.04
604230.8967,163.236,-41.785,1008.635,-1408.75,-5302.5,1163.75,-39.52,-194.56,-360.24
604230.9467,168.421,-37.271,1008.33,516.25,-3902.5,131.25,-30.4,-200.64,-346.56
604230.9967,153.537,-15.616,1006.134,-2590.0,-4200.0,-376.25,-41.04,-203.68,-342.0
604231.0467,156.343,-37.576,1008.696,-1566.25,-4532.5,2537.5,-44.08,-199.12,-331.36
604231.0967,162.321,-35.868,1005.707,-1365.0,-3990.0,2231.25,-25.84,-191.52,-349.6
604231.1467,148.291,-32.818,1014.918,-1435.0,-3281.25,393.75,-30.4,-215.84,-348.08
604231.1967,153.72,-38.613,1013.881,-1172.5,-5005.0,-113.75,-51.68,-202.16,-331.36
604231.2467,158.478,-27.084,1010.709,-1268.75,-4698.75,52.5,-39.52,-199.12,-346.56
604231.2967,153.293,-37.21,1007.171,-848.75,-4917.5,1172.5,-16.72,-190.0,-352.64
604231.3467,159.759,-25.559,1008.391,-586.25,-4856.25,455.0,-33.44,-205.2,-354.16
604231.3967,158.661,-22.936,1008.757,-1785.0,-3736.25,-621.25,-51.68,-202.16,-351.12
604231.4467,151.463,-29.524,1009.733,-2073.75,-4182.5,910.0,-51.68,-185.44,-360.24
604231.4967,153.903,-32.269,1011.685,-2030.0,-4760.0,2143.75,-47.12,-186.96,-340.48
604231.5467,156.221,-37.149,1012.295,-1653.75,-4611.25,1828.75,-48.64,-208.24,-360.24
604231.5967,153.171,-35.807,1009.916,-1601.25,-4690.0,595.0,-38.0,-206.72,-340.48
604231.6469,159.027,-32.513,1008.635,-1478.75,-4410.0,-726.25,-42.56,-206.72,-334.4
604231.6967,154.818,-38.979,1007.415,-1968.75,-4497.5,306.25,-51.68,-208.24,-332.88
604231.7467,161.772,-39.467,1010.526,-1207.5,-4847.5,997.5,-31.92,-212.8,-346.56
604231.7967,159.027,-21.289,1011.929,-210.0,-2677.5,-332.5,-25.84,-193.04,-345.04
604231.8467,141.642,-20.496,1010.16,-1986.25,-4278.75,-358.75,-38.0,-196.08,-346.56
604231.8967,152.439,-32.94,1005.219,-2178.75,-5005.0,1461.25,-41.04,-212.8,-346.56
604231.9467,159.332,-34.648,1009.611,-1260.0,-3491.25,1750.0,-50.16,-206.72,-352.64
604231.9967,147.498,-29.585,1010.099,-2380.0,-4348.75,1487.5,-34.96,-200.64,-346.56
604232.0467,161.528,-38.857,1012.051,-1820.0,-4672.5,341.25,-19.76,-211.28,-348.08
604232.0967,144.143,-36.844,1011.197,-1557.5,-4900.0,533.75,-44.08,-202.16,-337.44
604232.1467,151.219,-38.674,1011.014,-980.0,-6020.0,586.25,-34.96,-188.48,-345.04
604232.1967,163.602,-26.901,1009.245,-822.5,-4891.25,-770.0,-30.4,-200.64,-342.0
604232.2467,149.694,-19.703,1010.892,-1513.75,-4646.25,-743.75,-33.44,-205.2,-354.16
604232.2967,154.635,-31.293,1008.818,-2712.5,-5556.25,1522.5,-36.48,-205.2,-342.0
604232.3467,160.918,-38.186,1012.478,-2178.75,-4725.0,2021.25,-45.6,-199.12,-348.08
604232.3967,157.99,-41.48,1009.184,-1837.5,-4961.25,1461.25,-24.32,-212.8,-348.08
604232.4467,165.737,-33.062,1009.977,-1251.25,-3928.75,315.0,-39.52,-218.88,-345.04
604232.4967,152.744,-19.642,1008.574,-2012.5,-3080.0,770.0,-44.08,-206.72,-354.16
604232.5467,155.611,-37.332,1006.195,-3473.75,-4611.25,3316.25,-31.92,-200.64,-329.84
604232.5967,175.192,-49.41,1012.844,-481.25,-3430.0,1688.75,-36.48,-191.52,-337.44
604232.6467,151.219,-28.121,1009.001,-1067.5,-2170.0,227.5,-36.48,-194.56,-345.04
604232.6967,151.951,-34.709,1013.454,-2205.0,-4462.5,192.5,-53.2,-196.08,-366.32
604232.7467,151.646,-38.369,1010.343,-2205.0,-3780.0,3097.5,-45.6,-206.72,-351.12
604232.7967,149.633,-38.857,1012.234,-971.25,-2922.5,2721.25,-41.04,-196.08,-348.08
604232.8467,153.171,-47.092,1013.332,-2721.25,-4777.5,1172.5,-47.12,-218.88,-352.64
604232.8967,155.977,-45.872,1016.138,-1496.25,-4060.0,455.0,-41.04,-196.08,-346.56
604232.9467,138.409,-47.519,1011.441,-1793.75,-5285.0,586.25,-31.92,-191.52,-346.56
604232.9967,158.722,-40.138,1007.781,-175.0,-5906.25,-236.25,-47.12,-199.12,-349.6
604233.0467,157.99,-27.084,1006.805,-551.25,-4550.0,-1365.0,-50.16,-215.84,-361.76
604233.0967,146.034,-29.158,1008.513,-1583.75,-5197.5,105.0,-39.52,-180.88,-348.08
604233.1467,151.707,-32.513,1014.613,-1933.75,-5687.5,1557.5,-50.16,-200.64,-342.0
604233.1968,150.67,-38.674,1011.014,-1636.25,-5267.5,1583.75,-38.0,-206.72,-346.56
604233.2467,158.478,-40.382,1007.11,-1601.25,-5180.0,516.25,-38.0,-190.0,-358.72
604233.2967,155.611,-37.942,1011.502,-1583.75,-5145.0,35.0,-30.4,-199.12,-357.2
604233.3467,155.855,-38.674,1006.805,-2406.25,-5451.25,245.0,-39.52,-202.16,-346.56
604233.3967,175.68,-49.532,1009.611,-813.75,-4698.75,848.75,-38.0,-200.64,-349.6
604233.4467,169.458,-36.844,1008.513,297.5,-2502.5,-805.0,-38.0,-196.08,-348.08
604233.4968,147.62,-26.352,1006.378,-1706.25,-3683.75,-971.25,-27.36,-197.6,-338.96
604233.5467,155.367,-35.624,1011.197,-1706.25,-3876.25,507.5,-47.12,-212.8,-357.2
604233.5967,154.391,-39.589,1012.417,-1102.5,-3911.25,2310.0,-48.64,-206.72,-349.6
604233.6467,142.191,-30.866,1011.014,-2012.5,-4952.5,1557.5,-27.36,-206.72,-358.72
604233.6967,156.648,-40.26,1011.868,-1732.5,-4751.25,393.75,-60.8,-200.64,-348.08
604233.7467,150.487,-34.16,1008.757,-1907.5,-4313.75,148.75,-42.56,-212.8,-348.08
604233.7967,151.158,-41.907,1010.038,-1461.25,-5031.25,717.5,-38.0,-191.52,-346.56
604233.8467,154.208,-33.367,1010.587,-603.75,-4952.5,70.0,-48.64,-188.48,-334.4
604233.8967,152.866,-26.901,1008.574,-1522.5,-4086.25,-78.75,-51.68,-205.2,-343.52
604233.9467,150.487,-31.232,1011.868,-2117.5,-4418.75,455.0,-50.16,-197.6,-345.04
604233.9967,140.849,-32.574,1013.942,-1680.0,-5066.25,2196.25,-34.96,-188.48,-340.48
604234.0467,147.498,-35.746,1012.661,-2310.0,-6300.0,1540.0,-39.52,-199.12,-345.04
604234.0967,156.221,-45.14,1009.794,-2047.5,-5250.0,673.75,-48.64,-190.0,-346.56
604234.1467,155.672,-34.343,1006.134,-2432.5,-5740.0,192.5,-34.96,-193.04,-338.96
604234.1967,166.835,-45.933,1004.365,-2441.25,-4707.5,236.25,-36.48,-183.92,-349.6
604234.2467,167.14,-50.447,1012.173,-568.75,-4628.75,315.0,-51.68,-193.04,-349.6
604234.2967,154.025,-21.838,1009.611,-1443.75,-2668.75,-1093.75,-48.64,-206.72,-349.6
604234.3467,144.387,-33.55,1014.369,-2773.75,-4628.75,472.5,-38.0,-205.2,-346.56
604234.3968,157.319,-41.175,1007.72,-1251.25,-4611.25,2371.25,-34.96,-194.56,-340.48
604234.4467,157.136,-40.87,1009.367,-1120.0,-3867.5,1067.5,-44.08,-203.68,-337.44
604234.4967,154.33,-35.929,1012.173,-2030.0,-3998.75,70.0,-44.08,-194.56,-349.6
604234.5467,157.502,-36.722,1012.661,-1023.75,-3806.25,-175.0,-38.0,-203.68,-345.04
604234.5967,148.962,-33.916,1009.489,-1793.75,-4130.0,516.25,-24.32,-202.16,-346.56
604234.6467,157.136,-42.029,1008.391,-498.75,-4821.25,1023.75,-41.04,-203.68,-345.04
604234.6967,160.552,-32.025,1008.818,-542.5,-3858.75,-140.0,-42.56,-193.04,-354.16
604234.7468,151.89,-30.195,1010.16,-1522.5,-3263.75,-183.75,-42.56,-191.52,-358.72
604234.7967,146.766,-35.746,1014.125,-1863.75,-3858.75,1426.25,-51.68,-206.72,-342.0
604234.8467,148.23,-37.698,1010.709,-1470.0,-4515.0,1986.25,-33.44,-188.48,-348.08
604234.8967,151.341,-37.027,1009.184,-1828.75,-4095.0,717.5,-38.0,-190.0,-352.64
604234.9467,151.219,-37.454,1010.404,-1461.25,-4453.75,-78.75,-51.68,-196.08,-352.64
604234.9967,150.426,-31.537,1009.855,-1951.25,-4305.0,-52.5,-42.56,-205.2,-335.92
604235.0467,155.428,-46.482,1010.77,-1688.75,-4611.25,1365.0,-42.56,-183.92,-342.0
604235.0967,157.868,-42.273,1012.6,498.75,-3648.75,192.5,-33.44,-211.28,-346.56
604235.1467,139.995,-20.557,1012.6,-2178.75,-4095.0,-936.25,-42.56,-205.2,-346.56
604235.1967,149.694,-41.541,1010.16,-1846.25,-4655.0,1400.0,-33.44,-193.04,-358.72
604235.2467,151.585,-39.528,1009.306,-1435.0,-4462.5,2012.5,-41.04,-191.52,-335.92
604235.2967,143.838,-35.441,1010.953,-1837.5,-4480.0,525.0,-53.2,-209.76,-342.0
604235.3467,148.657,-44.469,1011.868,-2003.75,-5381.25,323.75,-48.64,-191.52,-340.48
604235.3967,151.158,-35.99,1010.587,-1015.0,-4375.0,201.25,-41.04,-196.08,-329.84
604235.4467,148.596,-43.615,1010.221,-1303.75,-5626.25,148.75,-39.52,-188.48,-354.16
604235.4967,159.21,-37.637,1006.744,-245.0,-4961.25,262.5,-41.04,-211.28,-345.04
604235.5467,152.195,-21.35,1008.513,-1172.5,-3745.0,-455.0,-19.76,-199.12,-343.52
604235.5967,145.79,-31.354,1013.637,-2292.5,-4567.5,883.75,-30.4,-180.88,-345.04
604235.6467,147.559,-40.199,1008.147,-1636.25,-4585.0,1828.75,-36.48,-200.64,-358.72
604235.6967,149.206,-37.759,1010.343,-1793.75,-4471.25,936.25,-34.96,-199.12,-360.24
604235.7467,146.949,-45.506,1011.502,-1933.75,-5188.75,463.75,-25.84,-199.12,-351.12
604235.7967,149.45,-33.367,1009.001,-1032.5,-4838.75,-577.5,-39.52,-197.6,-352.64
604235.8467,145.546,-36.417,1009.367,-1618.75,-5066.25,245.0,-50.16,-208.24,-357.2
604235.8967,162.748,-45.506,1017.541,-490.0,-4891.25,140.0,-44.08,-205.2,-348.08
604235.9467,143.289,-19.093,1009.611,-1163.75,-3675.0,-498.75,-34.96,-206.72,-331.36
604235.9967,139.568,-30.988,1012.234,-2791.25,-5468.75,586.25,-38.0,-205.2,-352.64
604236.0467,153.354,-39.162,1006.744,-1820.0,-5748.75,2047.5,-51.68,-209.76,-342.0
604236.0967,147.559,-33.123,1009.306,-1417.5,-4287.5,621.25,-33.44,-174.8,-337.44
604236.1467,147.376,-39.04,1011.502,-2660.0,-6028.75,157.5,-38.0,-199.12,-346.56
604236.1967,161.345,-39.223,1012.417,-980.0,-4882.5,61.25,-42.56,-197.6,-348.08
604236.2467,145.302,-43.92,1012.295,-1417.5,-5643.75,-87.5,-36.48,-200.64,-355.68
604236.2968,160.674,-42.212,1009.489,-157.5,-6571.25,-647.5,-33.44,-197.6,-337.44
604236.3467,164.151,-25.62,1005.89,-498.75,-4471.25,-2108.75,-39.52,-206.72,-345.04
604236.3967,154.94,-25.681,1010.038,-1680.0,-4821.25,-1662.5,-42.56,-199.12,-349.6
604236.4467,157.502,-32.147,1013.82,-1496.25,-4777.5,1163.75,-36.48,-194.56,-355.68
604236.4967,152.5,-32.513,1010.831,-1575.0,-5232.5,1408.75,-45.6,-196.08,-345.04
604236.5467,155.611,-36.417,1010.709,-1855.0,-5766.25,525.0,-39.52,-211.28,-346.56
604236.5967,164.212,-29.768,1006.317,-2205.0,-5241.25,-218.75,-51.68,-205.2,-337.44
604236.6467,160.735,-37.576,1007.232,-2546.25,-5022.5,-227.5,-34.96,-182.4,-346.56
604236.6967,176.29,-47.092,1010.404,-78.75,-4847.5,455.0,-38.0,-191.52,-354.16
604236.7467,151.707,-20.496,1008.513,-192.5,-2721.25,-218.75,-45.6,-194.56,-354.16
604236.7967,148.108,-19.581,1007.72,-2616.25,-4523.75,-271.25,-38.0,-179.36,-346.56
604236.8467,157.868,-38.674,1010.465,-2091.25,-4567.5,1391.25,-34.96,-193.04,-332.88
604236.8967,157.502,-37.759,1012.722,-1225.0,-4095.0,1478.75,-30.4,-188.48,-351.12
604236.9467,154.696,-38.735,1012.356,-2248.75,-6107.5,1522.5,-50.16,-199.12,-355.68
604236.9967,163.968,-36.722,1011.746,-752.5,-4576.25,-17.5,-53.2,-200.64,-338.96
604237.0467,151.28,-32.818,1009.855,-1960.0,-5127.5,-157.5,-38.0,-186.96,-343.52
604237.0967,168.421,-42.09,1008.818,-498.75,-6273.75,-87.5,-36.48,-194.56,-346.56
604237.1467,164.7,-17.08,1006.439,-875.0,-3535.0,-1618.75,-42.56,-205.2,-354.16
604237.1967,151.707,-20.618,1009.794,-2537.5,-4935.0,-122.5,-42.56,-212.8,-340.48
604237.2467,161.528,-32.635,1012.112,-1435.0,-5118.75,2668.75,-50.16,-188.48,-340.48
604237.2967,162.931,-30.317,1009.489,-1890.0,-5031.25,2240.0,-53.2,-202.16,-342.0
604237.3467,156.221,-36.051,1010.831,-2625.0,-5083.75,1155.0,-48.64,-191.52,-342.0
604237.3967,161.711,-33.55,1004.487,-2082.5,-5162.5,822.5,-45.6,-194.56,-346.56
604237.4467,167.384,-38.43,1005.829,-2913.75,-4952.5,568.75,-44.08,-193.04,-334.4
604237.4967,173.545,-50.142,1009.977,-1067.5,-4663.75,1155.0,-45.6,-185.44,-337.44
604237.5467,171.471,-31.171,1009.184,393.75,-2878.75,-350.0,-53.2,-194.56,-349.6
604237.5967,149.816,-20.313,1009.916,-2642.5,-4357.5,-568.75,-31.92,-191.52,-345.04
604237.6467,160.308,-42.334,1010.221,-1680.0,-4401.25,2047.5,-30.4,-199.12,-349.6
604237.6967,159.576,-35.624,1009.855,-875.0,-4296.25,2537.5,-57.76,-203.68,-346.56
604237.7469,159.454,-32.757,1010.831,-2887.5,-5110.0,743.75,-44.08,-205.2,-346.56
604237.7967,165.737,-44.347,1012.539,-1303.75,-4191.25,376.25,-39.52,-191.52,-351.12
604237.8468,157.502,-32.452,1009.855,-1443.75,-4095.0,402.5,-41.04,-203.68,-343.52
604237.8967,164.09,-45.689,1011.136,-1146.25,-4935.0,778.75,-50.16,-203.68,-340.48
604237.9467,165.92,-34.099,1008.513,-17.5,-4830.0,595.0,-42.56,-200.64,-345.04
604237.9967,158.783,-26.352,1006.744,-1863.75,-4103.75,-533.75,-41.04,-199.12,-348.08
604238.0467,157.197,-38.003,1010.587,-1767.5,-3876.25,1277.5,-33.44,-202.16,-351.12
604238.0967,155.733,-34.404,1013.454,-1207.5,-4445.0,1872.5,-50.16,-196.08,-342.0
604238.1467,158.417,-41.114,1009.733,-2187.5,-4760.0,752.5,-42.56,-196.08,-332.88
604238.1967,156.221,-38.003,1009.794,-1181.25,-5022.5,717.5,-39.52,-203.68,-342.0
604238.2467,162.565,-32.269,1004.609,-2633.75,-5136.25,175.0,-48.64,-215.84,-352.64
604238.2967,172.813,-53.924,1010.526,-1531.25,-4812.5,1032.5,-39.52,-199.12,-342.0
604238.3467,167.262,-36.783,1010.404,1207.5,-3053.75,0.0,-33.44,-188.48,-338.96
604238.3967,149.938,-23.851,1010.465,-3010.0,-4576.25,-568.75,-42.56,-196.08,-351.12
604238.4467,157.99,-46.055,1008.147,-1671.25,-5346.25,2178.75,-45.6,-197.6,-352.64
604238.4967,165.737,-40.565,1007.842,-962.5,-4182.5,1540.0,-44.08,-200.64,-343.52
604238.5467,152.073,-35.563,1009.794,-2406.25,-4812.5,-140.0,-38.0,-206.72,-351.12
604238.5967,161.101,-48.434,1013.088,-1391.25,-5731.25,271.25,-47.12,-206.72,-345.04
604238.6467,167.811,-31.842,1006.073,-1172.5,-4567.5,-35.0,-50.16,-193.04,-358.72
604238.6967,158.295,-40.748,1010.099,-1111.25,-5346.25,525.0,-34.96,-186.96,-338.96
604238.7467,169.763,-36.112,1007.415,0.0,-4786.25,-271.25,-41.04,-200.64,-355.68
604238.7967,158.295,-25.803,1008.025,-1496.25,-3841.25,-1137.5,-47.12,-203.68,-337.44
604238.8467,155.001,-31.171,1011.136,-1863.75,-4602.5,778.75,-41.04,-186.96,-335.92
604238.8967,160.186,-36.417,1009.55,-1146.25,-4698.75,2292.5,-45.6,-180.88,-357.2
604238.9467,156.16,-39.162,1009.245,-2012.5,-5066.25,700.0,-44.08,-208.24,-354.16
604238.9967,160.003,-43.188,1010.038,-1540.0,-5215.0,157.5,-42.56,-203.68,-331.36
604239.0467,165.92,-35.563,1004.975,-1540.0,-4751.25,-306.25,-44.08,-199.12,-340.48
604239.0967,164.883,-43.31,1005.707,-1881.25,-5083.75,306.25,-33.44,-205.2,-355.68
604239.1467,173.057,-48.983,1013.271,743.75,-3552.5,-201.25,-56.24,-215.84,-345.04
604239.1967,147.437,-14.091,1011.014,-1172.5,-3780.0,-1382.5,-57.76,-197.6,-343.52
604239.2467,151.036,-29.585,1014.064,-2598.75,-5363.75,-568.75,-31.92,-206.72,-342.0
604239.2969,164.761,-34.526,1007.781,-1233.75,-5101.25,1680.0,-44.08,-194.56,-337.44
604239.3467,153.049,-25.803,1009.001,-1181.25,-4086.25,586.25,-33.44,-186.96,-352.64
604239.3967,157.624,-34.099,1011.563,-2668.75,-6168.75,367.5,-39.52,-193.04,-340.48
604239.4468,163.358,-32.513,1014.125,-656.25,-4235.0,-157.5,-25.84,-197.6,-340.48
604239.4967,155.611,-32.33,1011.502,-1645.0,-5442.5,-218.75,-45.6,-200.64,-348.08
604239.5467,169.641,-35.99,1010.77,-367.5,-5941.25,-245.0,-41.04,-197.6,-348.08
604239.5967,169.336,-15.86,1004.243,-752.5,-4243.75,-1085.0,-34.96,-200.64,-342.0
604239.6467,160.674,-22.143,1010.221,-2432.5,-4786.25,-805.0,-48.64,-212.8,-352.64
604239.6967,166.103,-34.709,1009.611,-1461.25,-4926.25,1758.75,-53.2,-200.64,-342.0
604239.7467,167.567,-29.768,1009.733,-1286.25,-4480.0,1715.0,-41.04,-203.68,-343.52
604239.7967,162.809,-39.589,1007.903,-1811.25,-5153.75,691.25,-42.56,-197.6,-355.68
604239.8467,162.321,-27.206,1008.696,-1557.5,-4943.75,367.5,-62.32,-202.16,-338.96
604239.8967,168.238,-32.269,1004.487,-2756.25,-5696.25,-87.5,-50.16,-203.68,-346.56
604239.9467,181.109,-43.066,1012.112,-726.25,-4952.5,332.5,-33.44,-205.2,-343.52
604239.9967,157.319,-18.3,1009.855,-621.25,-2590.0,-542.5,-36.48,-220.4,-340.48
604240.0467,155.184,-17.08,1009.794,-2721.25,-5110.0,148.75,-33.44,-205.2,-335.92
604240.0967,166.164,-37.027,1006.561,-1811.25,-4340.0,1715.0,-39.52,-200.64,-357.2
604240.1467,170.007,-32.696,1006.622,-1146.25,-3788.75,1347.5,-45.6,-208.24,-342.0
604240.1967,162.321,-32.757,1012.356,-2660.0,-5223.75,612.5,-51.68,-197.6,-323.76
604240.2467,169.153,-34.953,1011.929,-568.75,-4235.0,8.75,-50.16,-208.24,-348.08
604240.2967,156.282,-26.657,1010.831,-1715.0,-5293.75,630.0,-34.96,-200.64,-355.68
604240.3467,173.911,-35.685,1005.524,-805.0,-5915.0,218.75,-48.64,-203.68,-348.08
604240.3967,184.22,-25.742,1002.718,-446.25,-4147.5,-708.75,-47.12,-191.52,-340.48
604240.4467,167.14,-24.888,1006.378,-1680.0,-2940.0,-682.5,-38.0,-185.44,-338.96
604240.4967,164.761,-30.744,1013.21,-1575.0,-3062.5,1522.5,-41.04,-205.2,-351.12
604240.5467,155.733,-31.171,1014.674,-1382.5,-3605.0,2362.5,-47.12,-212.8,-334.4
604240.5967,165.737,-35.563,1007.598,-1505.0,-4287.5,901.25,-41.04,-209.76,-348.08
604240.6467,160.857,-29.158,1009.733,-1163.75,-3605.0,166.25,-38.0,-208.24,-345.04
604240.6967,157.685,-21.716,1003.084,-2371.25,-4445.0,533.75,-39.52,-199.12,-346.56
604240.7467,168.177,-40.565,1008.574,-1977.5,-4348.75,1470.0,-39.52,-203.68,-345.04
604240.7967,175.314,-40.26,1013.21,306.25,-2668.75,875.0,-45.6,-209.76,-352.64
604240.8469,144.082,-16.592,1010.587,-1312.5,-3552.5,-463.75,-28.88,-196.08,-343.52
604240.8967,155.489,-26.291,1010.038,-2520.0,-4803.75,892.5,-42.56,-197.6,-352.64
604240.9467,161.955,-33.611,1008.879,-2126.25,-4515.0,2476.25,-34.96,-193.04,-360.24
604240.9967,152.134,-25.376,1006.012,-1785.0,-3780.0,1951.25,-45.6,-191.52,-348.08
604241.0467,155.611,-33.611,1009.489,-2913.75,-4970.0,1487.5,-30.4,-208.24,-338.96
604241.0967,162.199,-32.818,1011.624,-1093.75,-4331.25,761.25,-39.52,-214.32,-346.56
604241.1467,155.245,-36.661,1008.94,-2476.25,-5398.75,420.0,-41.04,-197.6,-343.52
604241.1967,166.164,-40.87,1012.539,-945.0,-5468.75,778.75,-41.04,-191.52,-351.12
604241.2467,164.578,-25.437,1004.792,-1102.5,-4497.5,-140.0,-39.52,-193.04,-349.6
604241.2967,155.55,-28.243,1010.221,-1995.0,-4340.0,761.25,-54.72,-208.24,-349.6
604241.3467,158.722,-30.439,1009.428,-1995.0,-4541.25,1741.25,-41.04,-208.24,-338.96
604241.3967,161.284,-34.282,1011.136,-2222.5,-4436.25,1741.25,-45.6,-205.2,-351.12
604241.4467,159.881,-38.43,1013.21,-1645.0,-4252.5,1277.5,-44.08,-206.72,-346.56
604241.4967,158.844,-36.661,1010.892,-1373.75,-4760.0,630.0,-44.08,-194.56,-349.6
604241.5467,160.491,-35.624,1008.513,-2161.25,-4760.0,866.25,-44.08,-196.08,-338.96
604241.5967,158.661,-40.687,1004.914,-1951.25,-4663.75,892.5,-38.0,-199.12,-345.04
604241.6467,168.787,-34.465,1010.465,227.5,-3185.0,-673.75,-57.76,-208.24,-342.0
604241.6967,152.805,-19.459,1011.807,-1233.75,-3631.25,-603.75,-41.04,-188.48,-352.64
604241.7467,153.415,-32.147,1010.221,-2511.25,-5328.75,1400.0,-44.08,-203.68,-345.04
604241.7967,166.53,-41.968,1008.635,-1015.0,-3946.25,2415.0,-48.64,-206.72,-349.6
604241.8467,152.317,-32.33,1010.709,-1067.5,-3902.5,603.75,-44.08,-190.0,-342.0
604241.8967,167.445,-45.14,1011.136,-1802.5,-4655.0,-341.25,-38.0,-186.96,-343.52
604241.9467,163.541,-30.378,1006.988,-1120.0,-3710.0,0.0,-28.88,-202.16,-343.52
604241.9967,154.879,-34.343,1007.72,-1312.5,-4182.5,568.75,-53.2,-200.64,-337.44
604242.0467,167.14,-33.184,1007.476,-315.0,-3867.5,350.0,-30.4,-200.64,-345.04
604242.0967,163.846,-22.692,1006.988,-857.5,-3001.25,-805.0,-44.08,-199.12,-337.44
604242.1467,150.914,-25.864,1010.526,-1820.0,-3526.25,621.25,-41.04,-205.2,-345.04
604242.1967,148.291,-31.049,1014.491,-1041.25,-3710.0,2152.5,-48.64,-194.56,-351.12
604242.2467,150.365,-30.988,1012.539,-1750.0,-4480.0,1610.0,-30.4,-197.6,-343.52
604242.2967,154.574,-37.21,1011.014,-1802.5,-4427.5,341.25,-36.48,-199.12,-348.08
604242.3467,151.28,-37.515,1011.197,-980.0,-4488.75,0.0,-47.12,-197.6,-337.44
604242.3969,156.465,-27.267,1009.794,-2248.75,-4628.75,385.0,-30.4,-185.44,-342.0
604242.4467,156.404,-44.103,1008.513,-2073.75,-4952.5,1863.75,-53.2,-203.68,-343.52
604242.4968,166.469,-40.382,1008.94,358.75,-3543.75,236.25,-51.68,-200.64,-331.36
604242.5467,146.949,-19.581,1008.757,-2756.25,-4208.75,-586.25,-48.64,-208.24,-345.04
604242.5967,148.108,-37.881,1009.184,-2196.25,-4646.25,1058.75,-28.88,-200.64,-340.48
604242.6467,155.855,-37.027,1007.598,-1373.75,-4235.0,2091.25,-48.64,-197.6,-357.2
604242.6967,147.193,-30.012,1011.746,-1496.25,-4261.25,778.75,-51.68,-197.6,-345.04
604242.7467,156.953,-39.467,1012.661,-2353.75,-4865.0,175.0,-53.2,-199.12,-332.88
604242.7967,153.293,-31.903,1012.234,-1295.0,-4147.5,-61.25,-59.28,-177.84,-357.2
604242.8467,150.426,-37.759,1010.099,-1303.75,-5171.25,595.0,-51.68,-212.8,-332.88
604242.8967,160.369,-35.014,1010.221,-813.75,-5057.5,612.5,-47.12,-208.24,-355.68
604242.9467,155.367,-25.925,1013.21,-1443.75,-3666.25,-656.25,-41.04,-185.44,-349.6
604242.9967,144.936,-25.986,1010.282,-2091.25,-4515.0,157.5,-56.24,-208.24,-348.08
604243.0467,151.585,-32.513,1010.892,-1872.5,-4480.0,1863.75,-60.8,-200.64,-352.64
604243.0967,152.256,-35.685,1014.735,-1863.75,-4550.0,1373.75,-38.0,-211.28,-358.72
604243.1467,153.11,-39.528,1010.099,-1837.5,-4803.75,796.25,-34.96,-211.28,-343.52
604243.1967,150.975,-35.38,1010.587,-980.0,-4611.25,-61.25,-47.12,-197.6,-357.2
604243.2467,158.356,-28.853,1004.853,-2152.5,-4908.75,-131.25,-39.52,-205.2,-345.04
604243.2967,160.308,-43.676,1011.929,-1767.5,-4900.0,1286.25,-36.48,-188.48,-349.6
604243.3467,157.014,-20.679,1010.526,-61.25,-3106.25,-831.25,-47.12,-193.04,-340.48
604243.3967,145.424,-20.923,1010.953,-2887.5,-4130.0,-647.5,-42.56,-208.24,-354.16
604243.4467,150.06,-42.029,1009.672,-1610.0,-5066.25,2318.75,-38.0,-200.64,-351.12
604243.4967,154.086,-36.295,1009.977,-1251.25,-4016.25,1347.5,-50.16,-185.44,-343.52
604243.5467,141.398,-28.853,1009.794,-2222.5,-4873.75,0.0,-56.24,-212.8,-361.76
604243.5967,164.273,-42.212,1014.186,-1155.0,-4681.25,-175.0,-45.6,-199.12,-351.12
604243.6467,155.123,-29.097,1007.903,-1391.25,-4340.0,376.25,-44.08,-203.68,-355.68
604243.6967,153.232,-40.992,1008.757,-1172.5,-4926.25,848.75,-44.08,-208.24,-355.68
604243.7467,164.151,-31.415,1005.768,-743.75,-3806.25,-332.5,-63.84,-193.04,-348.08
604243.7967,154.757,-25.559,1008.94,-1242.5,-3307.5,-901.25,-50.16,-191.52,-348.08
604243.8467,149.45,-31.537,1013.149,-1618.75,-3701.25,1058.75,-44.08,-211.28,-352.64
604243.8967,145.668,-32.208,1012.234,-1260.0,-3946.25,1907.5,-31.92,-196.08,-345.04
604243.9469,148.474,-32.452,1015.223,-1723.75,-4453.75,1102.5,-47.12,-190.0,-334.4
604243.9967,144.509,-37.454,1012.295,-1583.75,-4672.5,122.5,-28.88,-193.04,-354.16
604244.0468,151.89,-30.378,1009.489,-1338.75,-4550.0,-218.75,-39.52,-206.72,-342.0
604244.0967,150.487,-34.587,1008.33,-2275.0,-4462.5,586.25,-51.68,-193.04,-335.92
604244.1467,162.931,-44.164,1015.284,-542.5,-4908.75,980.0,-42.56,-197.6,-334.4
604244.1967,159.454,-20.801,1008.879,-166.25,-3097.5,-630.0,-53.2,-203.68,-346.56
604244.2467,140.727,-26.352,1013.027,-3176.25,-5293.75,253.75,-36.48,-194.56,-355.68
604244.2967,151.158,-38.613,1008.147,-1767.5,-4900.0,2003.75,-39.52,-208.24,-340.48
604244.3467,154.452,-36.173,1010.16,-1303.75,-3675.0,1898.75,-45.6,-217.36,-345.04
604244.3967,143.045,-34.892,1011.929,-2721.25,-5433.75,962.5,-39.52,-194.56,-349.6
604244.4467,159.698,-43.249,1013.637,-1767.5,-4952.5,166.25,-42.56,-190.0,-351.12
604244.4967,138.592,-34.221,1012.051,-1522.5,-4357.5,253.75,-33.44,-211.28,-338.96
604244.5467,145.302,-37.759,1011.563,-1470.0,-6168.75,787.5,-48.64,-205.2,-343.52
604244.5967,157.746,-30.927,1007.354,-437.5,-4707.5,-280.0,-44.08,-199.12,-343.52
604244.6467,146.4,-21.838,1008.757,-1828.75,-4952.5,-595.0,-39.52,-217.36,-345.04
604244.6967,152.073,-31.293,1009.855,-2467.5,-5013.75,665.0,-42.56,-200.64,-357.2
604244.7467,154.025,-34.77,1009.184,-1785.0,-5215.0,1767.5,-48.64,-200.64,-363.28
604244.7967,154.574,-34.648,1010.892,-2266.25,-5031.25,691.25,-59.28,-191.52,-349.6
604244.8467,153.171,-42.395,1011.99,-1120.0,-4305.0,796.25,-36.48,-200.64,-343.52
604244.8967,153.293,-30.805,1007.964,-2213.75,-5757.5,96.25,-47.12,-211.28,-352.64
604244.9467,154.513,-41.053,1006.866,-2353.75,-5118.75,-533.75,-54.72,-196.08,-343.52
604244.9967,168.848,-45.628,1012.234,192.5,-4952.5,52.5,-34.96,-186.96,-335.92
604245.0467,143.777,-18.239,1009.855,-1671.25,-3832.5,-1242.5,-50.16,-193.04,-343.52
604245.0967,147.071,-30.561,1009.733,-2966.25,-5556.25,87.5,-38.0,-205.2,-354.16
604245.1467,159.393,-39.65,1006.378,-1653.75,-5075.0,2108.75,-51.68,-185.44,-348.08
604245.1967,156.709,-36.905,1008.452,-1085.0,-3832.5,892.5,-28.88,-202.16,-348.08
604245.2467,156.587,-39.345,1011.441,-2590.0,-5521.25,157.5,-54.72,-211.28,-352.64
604245.2967,159.271,-35.563,1014.613,-1155.0,-4900.0,227.5,-36.48,-214.32,-345.04
604245.3467,149.145,-35.014,1010.16,-1793.75,-5932.5,743.75,-33.44,-203.68,-348.08
604245.3967,173.484,-42.639,1004.67,-507.5,-6343.75,507.5,-42.56,-202.16,-342.0
604245.4467,175.375,-30.073,1003.511,148.75,-3937.5,-1435.0,-54.72,-206.72,-351.12
604245.4967,151.89,-18.239,1009.245,-2091.25,-3561.25,-1408.75,-42.56,-199.12,-348.08
604245.5467,151.402,-33.794,1012.295,-2117.5,-4821.25,2353.75,-33.44,-208.24,-338.96
604245.5968,162.26,-36.173,1009.855,-1872.5,-4480.0,2292.5,-44.08,-203.68,-337.44
604245.6467,160.125,-41.175,1008.696,-1793.75,-4007.5,306.25,-39.52,-212.8,-354.16
604245.6967,151.768,-37.149,1012.173,-612.5,-4016.25,-210.0,-41.04,-203.68,-351.12
604245.7467,151.829,-24.278,1007.781,-1636.25,-4497.5,-446.25,-51.68,-193.04,-352.64
604245.7967,157.38,-40.992,1006.805,-2143.75,-5136.25,700.0,-34.96,-202.16,-355.68
604245.8467,168.238,-47.275,1013.149,148.75,-4331.25,892.5,-45.6,-188.48,-345.04
604245.8968,152.5,-13.115,1008.94,-1557.5,-3622.5,-796.25,-36.48,-208.24,-342.0
604245.9467,152.439,-36.295,1011.38,-2528.75,-4401.25,805.0,-39.52,-208.24,-334.4
604245.9967,156.404,-38.735,1007.476,-1190.0,-4585.0,2633.75,-41.04,-200.64,-364.8
604246.0467,155.855,-31.781,1009.855,-1496.25,-4208.75,1338.75,-38.0,-196.08,-355.68
604246.0967,155.184,-37.149,1009.855,-2143.75,-4410.0,236.25,-54.72,-200.64,-345.04
604246.1467,158.905,-33.367,1009.916,-840.0,-4270.0,131.25,-47.12,-203.68,-349.6
604246.1967,155.306,-36.905,1009.184,-1925.0,-4891.25,603.75,-34.96,-203.68,-349.6
604246.2467,160.125,-38.613,1009.794,-665.0,-4760.0,988.75,-34.96,-197.6,-354.16
604246.2967,159.088,-25.376,1007.537,-953.75,-4068.75,-218.75,-36.48,-196.08,-343.52
604246.3467,152.927,-27.511,1009.306,-1977.5,-4383.75,455.0,-33.44,-197.6,-354.16
604246.3967,156.282,-33.733,1011.868,-1697.5,-3797.5,1435.0,-50.16,-209.76,-352.64
604246.4467,148.657,-34.526,1013.637,-1855.0,-4803.75,1671.25,-48.64,-188.48,-354.16
604246.4967,158.051,-41.236,1011.014,-1155.0,-5600.0,2143.75,-47.12,-200.64,-348.08
604246.5467,156.465,-29.28,1008.94,-1382.5,-4217.5,-70.0,-31.92,-208.24,-351.12
604246.5967,153.964,-33.306,1010.282,-2686.25,-4313.75,43.75,-51.68,-199.12,-349.6
604246.6467,154.086,-44.896,1011.685,-1583.75,-4480.0,1111.25,-47.12,-186.96,-337.44
604246.6967,167.567,-43.005,1011.441,656.25,-3456.25,-297.5,-38.0,-193.04,-352.64
604246.7467,153.842,-13.298,1009.977,-1146.25,-3115.0,-1058.75,-48.64,-209.76,-346.56
604246.7967,147.986,-35.929,1011.197,-2406.25,-4497.5,848.75,-47.12,-197.6,-346.56
604246.8467,154.33,-34.404,1008.086,-1408.75,-4313.75,1977.5,-38.0,-193.04,-354.16
604246.8967,152.622,-36.905,1013.454,-1190.0,-3780.0,831.25,-33.44,-208.24,-345.04
604246.9467,151.402,-36.295,1008.757,-2038.75,-5241.25,498.75,-42.56,-221.92,-345.04
604246.9967,158.6,-33.672,1010.404,-1006.25,-4348.75,52.5,-47.12,-199.12,-342.0
604247.0467,150.853,-35.319,1009.001,-1890.0,-4628.75,166.25,-38.0,-199.12,-334.4
604247.0967,158.478,-35.441,1010.648,-516.25,-4847.5,481.25,-33.44,-200.64,-355.68
604247.1468,158.844,-25.742,1005.341,-752.5,-3998.75,-157.5,-24.32,-190.0,-354.16
604247.1967,154.391,-26.474,1007.781,-2275.0,-3386.25,96.25,-48.64,-205.2,-358.72
604247.2467,147.437,-33.428,1014.064,-1400.0,-3832.5,2388.75,-44.08,-214.32,-348.08
604247.2967,147.071,-34.038,1014.735,-1435.0,-4130.0,2082.5,-42.56,-191.52,-351.12
604247.3467,154.879,-38.43,1009.306,-1715.0,-4121.25,402.5,-36.48,-202.16,-332.88
604247.3967,150.548,-37.393,1009.428,-805.0,-4112.5,227.5,-36.48,-202.16,-345.04
604247.4467,153.781,-27.999,1005.707,-1890.0,-4480.0,245.0,-42.56,-190.0,-346.56
604247.4967,153.354,-46.238,1009.245,-1820.0,-4663.75,1618.75,-24.32,-205.2,-355.68
604247.5467,159.393,-39.65,1012.966,140.0,-3570.0,367.5,-30.4,-206.72,-334.4
604247.5967,140.971,-17.385,1010.709,-2441.25,-3631.25,-883.75,-38.0,-203.68,-361.76
604247.6467,145.363,-33.55,1012.478,-2021.25,-4226.25,1172.5,-36.48,-199.12,-343.52
604247.6967,143.411,-34.77,1009.855,-1540.0,-4637.5,2660.0,-34.96,-202.16,-349.6
604247.7467,143.899,-31.049,1013.271,-1426.25,-4751.25,796.25,-53.2,-194.56,-337.44
604247.7967,144.204,-37.393,1012.539,-2231.25,-5670.0,0.0,-44.08,-199.12,-354.16
604247.8467,151.341,-29.951,1009.062,-1750.0,-5276.25,-122.5,-30.4,-186.96,-343.52
604247.8967,150.975,-37.332,1007.476,-1461.25,-5582.5,1102.5,-36.48,-185.44,-355.68
604247.9467,160.003,-34.77,1009.062,-595.0,-5040.0,988.75,-39.52,-208.24,-361.76
604247.9967,160.064,-27.328,1007.964,-1837.5,-4095.0,-822.5,-33.44,-199.12,-349.6
604248.0467,149.023,-32.025,1008.696,-1863.75,-3806.25,52.5,-21.28,-212.8,-354.16
604248.0967,153.72,-35.38,1009.55,-1960.0,-4366.25,1793.75,-36.48,-200.64,-340.48
604248.1467,148.291,-36.6,1013.088,-1688.75,-4480.0,1312.5,-38.0,-206.72,-346.56
604248.1967,151.89,-39.284,1008.574,-1653.75,-4637.5,752.5,-25.84,-199.12,-337.44
604248.2467,151.036,-39.772,1009.672,-1032.5,-4322.5,-367.5,-25.84,-199.12,-340.48
604248.2967,151.158,-28.548,1010.953,-1592.5,-4287.5,-428.75,-39.52,-206.72,-348.08
604248.3467,150.426,-34.953,1008.696,-1732.5,-4453.75,831.25,-36.48,-206.72,-345.04
604248.3967,154.513,-34.831,1014.735,385.0,-2940.0,-8.75,-31.92,-196.08,-346.56
