TimeStamp,ax,ay,az,gx,gy,gz,mx,my,mz
521434.7108,130.113,-31.415,999.546,-892.5,-3307.5,-1146.25,-51.68,-44.08,-308.56
521434.7608,125.721,-43.005,1010.099,-3412.5,-2108.75,-3080.0,-47.12,-9.12,-317.68
521434.8108,116.327,-31.171,1009.733,-2135.0,-1391.25,-5223.75,-38.0,-25.84,-314.64
521434.8608,118.035,-52.948,1017.907,-3876.25,-2126.25,-5600.0,-44.08,-30.4,-304.0
521434.9108,109.861,-49.471,1009.245,-2633.75,-1732.5,-5363.75,-36.48,-36.48,-316.16
521434.9608,97.783,-49.593,1020.042,-1610.0,-988.75,-1321.25,-47.12,-33.44,-314.64
521435.0108,84.119,-39.101,1018.151,-1680.0,-2843.75,1767.5,-27.36,-30.4,-320.72
521435.061,89.67,-44.103,1015.711,-1706.25,-2003.75,113.75,-39.52,-27.36,-317.68
521435.1108,86.498,-51.911,1015.528,-2712.5,-2310.0,-2931.25,-33.44,-36.48,-322.24
521435.1608,77.653,-43.31,1021.018,-2065.0,-3421.25,-3342.5,-34.96,-47.12,-313.12
521435.2108,83.936,-45.689,1019.737,-3780.0,-4051.25,-3666.25,-47.12,-47.12,-310.08
521435.2608,84.424,-55.937,1016.504,-3255.0,-4156.25,-1688.75,-34.96,-27.36,-316.16
521435.3108,82.655,-48.007,1017.419,315.0,-4418.75,2038.75,-38.0,-33.44,-294.88
521435.3608,89.792,-37.088,1019.737,175.0,-4978.75,4025.0,-39.52,-28.88,-316.16
521435.4108,94.001,-35.929,1017.724,-52.5,-5118.75,2835.0,-41.04,-34.96,-319.2
521435.4608,100.528,-45.994,1020.103,560.0,-4908.75,1697.5,-45.6,-41.04,-319.2
521435.5108,98.149,-33.672,1007.476,927.5,-4182.5,1618.75,-36.48,-38.0,-302.48
521435.5608,91.439,-29.097,1014.552,472.5,-4270.0,1776.25,-30.4,-27.36,-317.68
521435.6108,77.165,-32.696,1015.955,-3272.5,-4672.5,105.0,-28.88,-30.4,-320.72
521435.6608,87.84,-45.201,1021.567,-3570.0,-6475.0,910.0,-39.52,-28.88,-313.12
521435.7108,88.877,-44.469,1017.053,-2843.75,-6387.5,1802.5,-44.08,-28.88,-313.12
521435.7608,117.425,-51.728,1011.502,-1006.25,-5906.25,3823.75,-39.52,-31.92,-314.64
521435.8108,106.75,-46.36,1011.075,-1321.25,-4978.75,3815.0,-47.12,-21.28,-313.12
521435.8608,112.85,-51.24,1010.16,-778.75,-3648.75,1102.5,-30.4,-31.92,-319.2
521435.9108,101.687,-46.299,1014.43,-437.5,-3473.75,-52.5,-19.76,-22.8,-300.96
521435.9608,94.367,-33.794,1014.918,-1023.75,-2546.25,-1601.25,-44.08,-45.6,-314.64
521436.0108,84.851,-36.112,1021.323,-1478.75,-5766.25,-630.0,-45.6,-24.32,-297.92
521436.0608,104.615,-41.053,1012.417,-1251.25,-5215.0,122.5,-41.04,-21.28,-307.04
521436.1108,93.452,-40.077,1014.369,-490.0,-3937.5,-805.0,-44.08,-38.0,-304.0
521436.1608,92.781,-31.232,1015.101,-1557.5,-3867.5,-1365.0,-36.48,-33.44,-311.6
521436.2108,84.18,-37.515,1017.724,-1163.75,-4733.75,-341.25,-36.48,-41.04,-305.52
521436.2608,91.622,-38.003,1012.6,-1295.0,-5670.0,376.25,-31.92,-30.4,-308.56
521436.3108,110.959,-42.334,1017.724,-385.0,-5582.5,428.75,-31.92,-44.08,-313.12
521436.3608,88.511,-25.803,1008.086,-971.25,-3963.75,341.25,-33.44,-33.44,-302.48
521436.4108,95.221,-33.306,1015.833,-1986.25,-4830.0,210.0,-31.92,-25.84,-311.6
521436.4608,94.367,-29.219,1013.881,-2178.75,-4515.0,-376.25,-27.36,-28.88,-305.52
521436.5109,93.025,-42.151,1018.639,-1347.5,-4060.0,945.0,-44.08,-28.88,-310.08
521436.5608,94.367,-39.162,1015.528,-1452.5,-5101.25,1855.0,-44.08,-18.24,-313.12
521436.6108,100.772,-42.09,1021.201,-1268.75,-4777.5,918.75,-51.68,-30.4,-304.0
521436.6608,90.89,-37.82,1016.26,-2467.5,-5783.75,612.5,-19.76,-25.84,-319.2
521436.7108,103.517,-42.517,1013.637,-813.75,-5713.75,402.5,-33.44,-31.92,-282.72
521436.7608,102.846,-25.376,1013.271,-1050.0,-4348.75,113.75,-42.56,-28.88,-314.64
521436.8108,101.687,-24.217,1011.685,-2135.0,-3963.75,52.5,-56.24,-36.48,-304.0
521436.8608,89.243,-31.354,1016.87,-2800.0,-4567.5,1312.5,-34.96,-36.48,-310.08
521436.9108,96.014,-35.807,1015.772,-2940.0,-5153.75,1627.5,-33.44,-36.48,-307.04
521436.9608,95.831,-38.674,1009.306,-3482.5,-5731.25,1330.0,-42.56,-16.72,-320.72
521437.0108,103.456,-54.839,1013.82,-1793.75,-4375.0,1435.0,-27.36,-27.36,-311.6
521437.0608,91.195,-46.36,1013.576,-1811.25,-4672.5,-673.75,-48.64,-38.0,-320.72
521437.1108,98.271,-51.423,1018.883,-1855.0,-5766.25,-1408.75,-38.0,-25.84,-311.6
521437.1608,110.532,-51.484,1015.101,96.25,-4681.25,-1286.25,-13.68,-38.0,-308.56
521437.2108,96.258,-30.988,1014.186,-253.75,-3570.0,-1023.75,-50.16,-24.32,-311.6
521437.2608,93.269,-35.014,1016.504,-2143.75,-4558.75,-1522.5,-31.92,-28.88,-322.24
521437.3108,91.378,-39.467,1019.676,-1006.25,-5958.75,105.0,-45.6,-42.56,-310.08
521437.3608,101.382,-38.918,1016.504,-1408.75,-5906.25,210.0,-33.44,-21.28,-311.6
521437.4108,99.613,-33.245,1015.162,-1662.5,-6273.75,-603.75,-41.04,-24.32,-302.48
521437.4608,103.273,-36.6,1011.99,-2030.0,-6606.25,17.5,-22.8,-42.56,-307.04
521437.5108,96.258,-40.016,1017.175,-1732.5,-6037.5,297.5,-44.08,-38.0,-320.72
521437.5608,101.199,-47.214,1020.103,-1741.25,-7122.5,-612.5,-44.08,-19.76,-313.12
521437.6108,102.358,-40.199,1023.702,-980.0,-9817.5,-1995.0,-30.4,-24.32,-308.56
521437.6608,125.416,-32.818,1012.478,-3955.0,-14297.5,3097.5,-30.4,-33.44,-294.88
521437.7108,127.124,-34.77,1007.537,-5810.0,-13230.0,2826.25,-48.64,-24.32,-291.84
521437.7608,124.989,-48.068,1009.916,-6632.5,-15828.75,2231.25,-54.72,-38.0,-304.0
521437.8108,158.295,-82.716,1009.306,-5512.5,-12110.0,3946.25,-69.92,-30.4,-311.6
521437.8609,156.038,-77.958,1011.075,-848.75,-7271.25,1723.75,-45.6,-25.84,-304.0
521437.9108,154.696,-63.684,1013.881,1583.75,-7210.0,-910.0,-69.92,-19.76,-290.32
521437.9608,153.171,-49.837,1005.585,-122.5,-6781.25,-1085.0,-59.28,-27.36,-297.92
521438.0108,168.36,-48.617,1005.158,2826.25,-4173.75,-1522.5,-71.44,-22.8,-308.56
521438.0608,129.808,-19.276,1012.783,1163.75,-5110.0,-3552.5,-56.24,-28.88,-293.36
521438.1108,137.921,-12.444,1023.946,2100.0,-5757.5,-3132.5,-42.56,-38.0,-299.44
521438.1608,134.322,-2.928,1009.855,-3167.5,-10666.25,2493.75,-57.76,-30.4,-307.04
521438.2108,196.847,-78.507,993.324,-6133.75,-7630.0,11900.0,-54.72,-30.4,-308.56
521438.2608,169.214,-86.864,993.812,-1986.25,-3395.0,7857.5,-69.92,-27.36,-305.52
521438.3108,175.802,-91.439,1006.317,-446.25,-3508.75,-5048.75,-68.4,-6.08,-300.96
521438.3608,174.033,-47.58,1012.905,358.75,1697.5,-13518.75,-68.4,-13.68,-290.32
521438.4108,102.602,-26.596,1028.765,-4917.5,-1015.0,-11611.25,-48.64,-30.4,-313.12
521438.4608,154.025,-42.029,1013.759,-5670.0,-10920.0,3920.0,-56.24,-41.04,-291.84
521438.5108,176.595,-70.882,1005.707,-2100.0,-8828.75,11138.75,-63.84,-18.24,-304.0
521438.5608,189.771,-85.461,1011.075,5372.5,341.25,15496.25,-51.68,-12.16,-299.44
521438.6108,115.412,-26.291,1020.042,4068.75,-10780.0,12923.75,-48.64,-28.88,-302.48
521438.6608,197.213,-32.513,1010.038,4357.5,-14971.25,10753.75,-63.84,-27.36,-299.44
521438.7108,225.639,-13.115,997.899,-1802.5,-17281.25,10508.75,-66.88,-41.04,-299.44
521438.7608,230.092,-37.942,1001.803,-437.5,-7936.25,7717.5,-57.76,-30.4,-297.92
521438.8108,194.163,-27.694,997.594,-2913.75,-9380.0,-4585.0,-53.2,-28.88,-305.52
521438.8608,210.45,-14.091,999.18,-6308.75,-6212.5,-18917.5,-51.68,-31.92,-308.56
521438.9108,195.444,-5.978,1002.596,-11357.5,-4445.0,-17053.75,-72.96,-25.84,-294.88
521438.9608,172.508,-60.817,1004.548,-7700.0,-2318.75,-3438.75,-69.92,-27.36,-300.96
521439.0108,170.434,-62.159,1006.561,-7603.75,-3850.0,1321.25,-68.4,-13.68,-291.84
521439.0608,200.568,-53.253,1010.648,-3780.0,-2012.5,-3141.25,-57.76,-21.28,-293.36
521439.1108,190.442,-77.958,1001.925,-4637.5,-7787.5,-918.75,-57.76,-27.36,-296.4
521439.1608,202.581,-80.764,1002.779,1662.5,-4637.5,840.0,-65.36,-34.96,-291.84
521439.2108,153.476,-49.898,1017.602,2616.25,437.5,1443.75,-82.08,-21.28,-300.96
521439.2608,138.226,-43.798,1025.837,1408.75,-3622.5,-1093.75,-66.88,-27.36,-287.28
521439.3109,147.681,-40.992,1010.77,280.0,-6746.25,-1785.0,-63.84,-22.8,-313.12
521439.3608,198.677,-37.088,997.594,-113.75,-5565.0,-2537.5,-54.72,-33.44,-293.36
521439.4108,199.348,-35.868,996.74,-2117.5,892.5,-2388.75,-66.88,-36.48,-311.6
521439.4608,164.761,-53.497,1011.136,-1198.75,1041.25,-761.25,-66.88,-36.48,-296.4
521439.5108,148.779,-45.933,1016.626,-1548.75,-1172.5,385.0,-60.8,-25.84,-300.96
521439.5608,139.08,-44.408,1019.615,-1487.5,-3202.5,673.75,-56.24,-24.32,-299.44
521439.6108,160.43,-39.04,1008.147,-2992.5,-4418.75,1146.25,-53.2,-41.04,-294.88
521439.6608,163.663,-49.532,1006.012,-3272.5,-5302.5,1776.25,-56.24,-28.88,-285.76
521439.7108,176.473,-53.741,1011.746,-1443.75,-4243.75,866.25,-59.28,-36.48,-300.96
521439.7608,150.609,-44.652,1008.696,-2852.5,-4436.25,-262.5,-63.84,-25.84,-304.0
521439.8108,151.463,-50.081,1017.846,-3491.25,-7271.25,227.5,-69.92,-30.4,-305.52
521439.8608,173.484,-56.73,1008.94,-2721.25,-6492.5,2257.5,-63.84,-24.32,-300.96
521439.9108,173.057,-55.083,1006.012,-2493.75,-5381.25,2782.5,-56.24,-34.96,-305.52
521439.9608,160.308,-58.133,1011.258,-2975.0,-5985.0,2546.25,-62.32,-41.04,-300.96
521440.0108,180.255,-64.05,1008.086,-2773.75,-7700.0,2065.0,-66.88,-28.88,-299.44
521440.0608,177.632,-61.793,1011.319,-3552.5,-8461.25,2056.25,-62.32,-25.84,-305.52
521440.1108,177.022,-70.211,1006.866,-1190.0,-6868.75,1163.75,-62.32,-25.84,-304.0
521440.1608,188.307,-65.392,1003.877,-700.0,-7437.5,-52.5,-62.32,-30.4,-294.88
521440.2108,184.952,-55.693,1005.89,-971.25,-6562.5,-1478.75,-69.92,-30.4,-302.48
521440.2608,183.854,-60.634,1002.047,-1085.0,-5678.75,-1041.25,-59.28,-30.4,-285.76
521440.3108,184.22,-57.828,1006.073,-192.5,-5853.75,1023.75,-66.88,-31.92,-294.88
521440.3608,181.231,-55.937,1005.768,367.5,-5853.75,2161.25,-57.76,-28.88,-297.92
521440.4108,181.292,-54.473,1005.829,-805.0,-6186.25,1023.75,-50.16,-25.84,-290.32
521440.4608,181.414,-49.593,1010.526,-2178.75,-7700.0,-280.0,-95.76,-25.84,-290.32
521440.5108,181.17,-57.706,1009.184,-3552.5,-8601.25,586.25,-86.64,-39.52,-296.4
521440.5608,191.54,-55.754,1004.792,-1146.25,-8111.25,2458.75,-68.4,-18.24,-305.52
521440.6108,182.573,-48.373,1010.892,-2730.0,-9240.0,3176.25,-69.92,-18.24,-302.48
521440.6609,188.856,-64.111,1005.219,-3473.75,-10797.5,2887.5,-71.44,-22.8,-302.48
521440.7108,197.213,-66.124,1008.94,-3500.0,-11077.5,3290.0,-76.0,-27.36,-275.12
521440.7608,207.217,-64.965,1002.657,-2861.25,-10578.75,3333.75,-77.52,-24.32,-279.68
521440.8108,214.964,-77.409,1004.67,-2887.5,-11672.5,2625.0,-74.48,-25.84,-287.28
521440.8608,227.408,-73.993,999.912,-2196.25,-12110.0,1776.25,-74.48,-21.28,-287.28
521440.9108,231.678,-72.468,997.167,-1933.75,-11375.0,551.25,-54.72,-27.36,-288.8
521440.9608,244.0,-72.224,995.154,-1373.75,-11086.25,-323.75,-68.4,-25.84,-264.48
521441.0108,252.174,-57.767,994.971,-953.75,-10036.25,-1128.75,-101.84,-28.88,-281.2
521441.0608,248.514,-65.941,991.128,-2651.25,-9117.5,-393.75,-82.08,-15.2,-282.72
521441.1108,250.771,-70.211,995.276,-1636.25,-8872.5,551.25,-94.24,-33.44,-287.28
521441.1608,251.869,-65.148,994.544,-2345.0,-9047.5,236.25,-83.6,-24.32,-272.08
521441.2108,253.516,-67.405,993.751,-3045.0,-9406.25,393.75,-72.96,-39.52,-288.8
521441.2608,257.969,-70.089,993.751,-2948.75,-10386.25,437.5,-95.76,-27.36,-275.12
521441.3108,265.411,-84.668,981.734,-2773.75,-12538.75,393.75,-106.4,-34.96,-275.12
521441.3608,291.702,-83.448,986.431,-455.0,-11173.75,-122.5,-107.92,-9.12,-269.04
521441.4108,287.188,-70.638,979.172,-1706.25,-9117.5,-1085.0,-80.56,-25.84,-269.04
521441.4608,294.752,-64.904,984.418,-1645.0,-8303.75,-1601.25,-89.68,-19.76,-261.44
521441.5108,283.406,-63.074,983.32,-3027.5,-8382.5,175.0,-97.28,-19.76,-272.08
521441.5608,289.75,-67.405,979.599,-2047.5,-7516.25,2423.75,-107.92,-27.36,-267.52
521441.6108,287.92,-73.261,982.039,-2651.25,-9196.25,2922.5,-95.76,-18.24,-266.0
521441.6608,303.109,-90.524,988.444,-2922.5,-8820.0,4515.0,-89.68,-19.76,-275.12
521441.7108,305.0,-91.439,973.377,-1618.75,-10447.5,2870.0,-95.76,-31.92,-262.96
521441.7608,321.836,-81.618,977.159,-612.5,-9738.75,490.0,-104.88,-21.28,-261.44
521441.8108,317.383,-78.263,977.098,-1925.0,-6212.5,-1207.5,-103.36,-27.36,-264.48
521441.8608,309.392,-74.42,976.061,-1233.75,-5740.0,-1548.75,-100.32,-22.8,-253.84
521441.9108,306.22,-73.993,980.819,-2905.0,-5687.5,113.75,-101.84,-21.28,-270.56
521441.9608,306.83,-76.006,980.758,-1417.5,-5941.25,472.5,-94.24,-22.8,-264.48
521442.0108,313.113,-75.457,973.011,-2878.75,-7463.75,1382.5,-109.44,-22.8,-256.88
521442.0608,322.934,-73.444,968.924,-1522.5,-5110.0,315.0,-97.28,-28.88,-281.2
521442.1109,332.877,-79.605,972.767,-3675.0,-4830.0,26.25,-103.36,-25.84,-266.0
521442.1608,327.021,-94.367,976.305,-1198.75,-3990.0,1067.5,-95.76,-15.2,-252.32
521442.2108,317.505,-79.544,973.194,-866.25,-3395.0,1671.25,-117.04,-19.76,-261.44
521442.2608,318.542,-82.472,976.488,-2878.75,-4340.0,1093.75,-118.56,-24.32,-246.24
521442.3108,319.335,-81.862,977.037,-525.0,-3010.0,218.75,-104.88,-31.92,-266.0
521442.3608,312.015,-75.64,972.279,-2143.75,-2607.5,35.0,-112.48,-7.6,-255.36
521442.4108,319.823,-84.668,983.503,-708.75,-2467.5,0.0,-83.6,-10.64,-259.92
521442.4608,302.377,-86.925,977.22,-1881.25,-2397.5,813.75,-112.48,3.04,-261.44
521442.5108,303.536,-85.4,971.669,-1006.25,-5512.5,-306.25,-112.48,-28.88,-252.32
521442.5608,328.973,-78.019,973.377,-612.5,-2607.5,-2432.5,-95.76,-16.72,-269.04
521442.6108,303.719,-70.15,981.734,280.0,-192.5,-2231.25,-95.76,-33.44,-261.44
521442.6608,294.264,-61.427,997.228,-402.5,-1872.5,96.25,-95.76,-21.28,-279.68
521442.7108,279.807,-70.821,968.497,6352.5,-7288.75,-673.75,-100.32,-13.68,-264.48
521442.7608,326.35,-76.616,984.845,-7463.75,-4173.75,936.25,-104.88,-28.88,-258.4
521442.8108,292.312,-107.97,976.915,2345.0,-3185.0,-2642.5,-106.4,-24.32,-264.48
521442.8608,306.769,-47.885,969.046,-4427.5,-5118.75,-4208.75,-112.48,-22.8,-272.08
521442.9108,321.226,-76.433,974.292,-3543.75,-4208.75,-6798.75,-101.84,-9.12,-266.0
521442.9608,321.592,-73.688,985.821,-2511.25,-2003.75,-3885.0,-100.32,-19.76,-279.68
521443.0108,306.952,-66.612,979.355,-402.5,2765.0,1146.25,-95.76,-34.96,-266.0
521443.0608,283.467,-60.573,985.699,-1592.5,2966.25,2213.75,-110.96,-33.44,-279.68
521443.1108,277.855,-67.405,990.03,-3123.75,1312.5,1767.5,-95.76,-28.88,-267.52
521443.1608,277.672,-76.311,989.542,-3176.25,857.5,2100.0,-115.52,-21.28,-273.6
521443.2108,284.87,-72.59,979.965,-3115.0,638.75,2415.0,-100.32,-28.88,-281.2
521443.2608,279.502,-71.919,989.542,-3272.5,2537.5,1513.75,-95.76,-18.24,-281.2
521443.3108,260.348,-89.853,997.594,-3167.5,3508.75,1531.25,-95.76,-16.72,-272.08
521443.3608,248.941,-85.644,999.851,-175.0,1032.5,-35.0,-85.12,-16.72,-273.6
521443.4108,248.087,-75.396,994.849,-192.5,-665.0,-1400.0,-71.44,-24.32,-278.16
521443.461,251.625,-69.845,995.825,420.0,-857.5,-1260.0,-91.2,-19.76,-290.32
521443.5108,245.037,-63.074,997.472,-481.25,-385.0,166.25,-92.72,-27.36,-285.76
521443.5608,233.447,-67.71,1003.511,-525.0,-533.75,901.25,-83.6,-27.36,-284.24
521443.6108,224.114,-69.418,1003.145,227.5,-2047.5,857.5,-94.24,-42.56,-275.12
521443.6608,229.848,-57.157,999.912,-148.75,-3325.0,953.75,-86.64,-33.44,-290.32
521443.7108,226.127,-58.621,997.96,-1750.0,-5040.0,665.0,-80.56,-22.8,-288.8
521443.7608,245.281,-70.15,998.326,-2100.0,-6063.75,770.0,-85.12,-18.24,-272.08
521443.8108,254.797,-71.675,998.143,-17.5,-3920.0,201.25,-77.52,-25.84,-279.68
521443.8608,228.75,-55.693,997.045,-1111.25,-4331.25,-192.5,-95.76,-39.52,-272.08
521443.9108,232.898,-65.026,996.496,-1636.25,-5066.25,-490.0,-79.04,-28.88,-282.72
521443.9608,246.074,-58.194,995.947,-1820.0,-6483.75,148.75,-91.2,-33.44,-284.24
521444.0108,255.041,-52.277,989.603,-3150.0,-3517.5,43.75,-74.48,-24.32,-281.2
521444.0608,251.625,-59.414,998.57,-1767.5,-2590.0,-1321.25,-82.08,-24.32,-287.28
521444.1108,244.0,-85.522,997.594,-6177.5,-6361.25,4103.75,-86.64,-28.88,-269.04
521444.1608,242.841,-106.994,986.37,-4208.75,-4847.5,7358.75,-77.52,-16.72,-275.12
521444.2108,262.788,-112.667,988.2,131.25,-4725.0,4375.0,-89.68,-15.2,-267.52
521444.2608,264.984,-86.864,991.189,3281.25,-358.75,-1216.25,-82.08,-22.8,-284.24
521444.3108,246.379,-94.184,997.716,586.25,-1155.0,-245.0,-106.4,-10.64,-294.88
521444.3608,243.39,-43.005,999.607,7770.0,3421.25,-7665.0,-80.56,-19.76,-290.32
521444.4108,186.782,-86.437,1018.09,-5862.5,-5932.5,-1610.0,-66.88,-27.36,-273.6
521444.4608,236.253,-96.746,998.387,2660.0,-8907.5,2913.75,-71.44,-31.92,-266.0
521444.5108,262.3,-57.279,992.287,3403.75,-6527.5,4235.0,-77.52,-16.72,-278.16
521444.5608,266.692,-39.04,980.697,-1513.75,-3220.0,-708.75,-85.12,-34.96,-284.24
521444.6108,247.538,-59.353,989.359,-997.5,866.25,43.75,-74.48,-21.28,-299.44
521444.6608,214.354,-45.994,996.374,-2205.0,-1058.75,1557.5,-72.96,-31.92,-293.36
521444.7108,224.968,-61.183,996.374,-3736.25,-840.0,1015.0,-80.56,-28.88,-276.64
521444.7608,224.419,-66.124,1002.413,-2511.25,962.5,-892.5,-92.72,-22.8,-288.8
521444.8108,193.187,-67.222,1007.72,183.75,2607.5,-1382.5,-69.92,-21.28,-278.16
521444.8608,186.172,-53.131,1010.526,8.75,-420.0,-1225.0,-76.0,-39.52,-294.88
521444.9109,200.69,-41.785,1010.77,-656.25,-2152.5,-2983.75,-68.4,-41.04,-304.0
521444.9608,187.209,-49.471,1011.563,-735.0,-3333.75,-1330.0,-77.52,-27.36,-296.4
521445.0108,195.322,-47.336,1011.502,87.5,-4900.0,341.25,-85.12,-44.08,-293.36
521445.0608,216.916,-37.088,1001.62,-1006.25,-5241.25,367.5,-74.48,-27.36,-296.4
521445.1108,205.814,-37.393,994.178,-2038.75,-5171.25,297.5,-74.48,-33.44,-288.8
521445.1608,219.173,-53.802,1002.962,-1443.75,-2913.75,1321.25,-72.96,-42.56,-294.88
521445.2108,201.361,-43.31,1001.193,-2353.75,-3316.25,1890.0,-88.16,-36.48,-300.96
521445.2608,199.714,-53.985,1006.805,-3220.0,-3718.75,2703.75,-68.4,-27.36,-308.56
521445.3108,204.716,-57.767,1002.657,-1942.5,-4567.5,3570.0,-85.12,-25.84,-284.24
521445.3608,205.997,-53.375,1002.169,-3316.25,-5276.25,2870.0,-68.4,-21.28,-285.76
521445.4108,221.125,-76.311,1002.169,-3036.25,-3605.0,2817.5,-66.88,-34.96,-284.24
521445.4608,194.773,-59.231,1007.476,-918.75,-1522.5,2152.5,-77.52,-24.32,-307.04
521445.5108,179.767,-57.157,1005.829,-2546.25,-3307.5,1452.5,-66.88,-16.72,-288.8
521445.5608,192.394,-68.32,1006.012,-3080.0,-5048.75,2082.5,-59.28,-22.8,-302.48
521445.6108,190.564,-67.71,1004.243,-1968.75,-4917.5,3342.5,-62.32,-21.28,-287.28
521445.6608,194.041,-65.087,1004.182,-3141.25,-5783.75,2861.25,-59.28,-12.16,-273.6
521445.7108,207.766,-77.714,1004.67,-2353.75,-4348.75,700.0,-77.52,-13.68,-291.84
521445.7608,193.126,-74.359,1003.877,-1995.0,-4926.25,201.25,-56.24,-27.36,-296.4
521445.8108,202.154,-80.276,1006.378,-560.0,-5215.0,-962.5,-62.32,-25.84,-293.36
521445.8608,209.779,-61.244,1001.62,-105.0,-4803.75,-1715.0,-69.92,-27.36,-290.32
521445.9108,209.596,-52.46,1001.254,-708.75,-2992.5,-2555.0,-66.88,-31.92,-288.8
521445.9608,187.697,-60.39,1008.086,-463.75,-4480.0,-2712.5,-88.16,-21.28,-281.2
521446.0108,203.008,-43.798,1010.587,-70.0,-5267.5,-945.0,-59.28,-27.36,-291.84
521446.0608,196.298,-57.523,993.019,-1163.75,-6965.0,1741.25,-54.72,-38.0,-300.96
521446.1108,243.146,-38.43,997.594,1723.75,-3325.0,-236.25,-62.32,-48.64,-288.8
521446.1608,201.91,-57.523,1009.916,-4278.75,-892.5,-647.5,-77.52,-36.48,-293.36
521446.2108,204.838,-58.621,1015.04,2266.25,-5792.5,385.0,-66.88,-25.84,-287.28
521446.261,198.738,-58.316,1007.049,2327.5,-3193.75,2038.75,-57.76,-34.96,-290.32
521446.3108,204.289,-54.595,992.958,2432.5,-4672.5,3928.75,-72.96,-34.96,-290.32
521446.3608,195.688,-20.13,997.472,883.75,-3403.75,6002.5,-82.08,-30.4,-293.36
521446.4108,192.455,-30.561,990.396,-3727.5,-4506.25,6693.75,-80.56,-31.92,-304.0
521446.4608,157.807,-85.034,1019.188,-2992.5,87.5,4830.0,-69.92,-25.84,-288.8
521446.5108,174.826,-67.466,1005.585,-7603.75,-6422.5,595.0,-62.32,-24.32,-305.52
521446.5608,180.255,-91.927,1018.212,-5005.0,-6571.25,-5188.75,-62.32,-33.44,-296.4
521446.6108,209.23,-83.997,988.078,-4252.5,-11672.5,-1767.5,-83.6,-24.32,-304.0
521446.6608,268.766,-74.725,988.078,3062.5,-7035.0,-4296.25,-72.96,-6.08,-297.92
521446.7108,254.004,-53.07,987.773,78.75,-1732.5,-2940.0,-63.84,-44.08,-291.84
521446.7608,227.164,-32.635,1002.718,-761.25,1680.0,-5906.25,-62.32,-47.12,-299.44
521446.8108,198.189,-33.306,1001.925,-2712.5,2537.5,-6868.75,-82.08,-38.0,-307.04
521446.8608,178.486,-43.066,1010.709,-3377.5,-210.0,-2493.75,-68.4,-31.92,-302.48
521446.9108,170.251,-58.804,1012.783,-1505.0,-1146.25,3806.25,-69.92,-28.88,-287.28
521446.9608,177.205,-41.785,1007.598,1487.5,-3053.75,6720.0,-71.44,-24.32,-287.28
521447.0108,186.66,-43.188,1003.206,-2161.25,-3430.0,2345.0,-53.2,-36.48,-288.8
521447.0608,182.451,-62.708,1006.683,-1662.5,-3211.25,-577.5,-66.88,-39.52,-305.52
521447.1108,176.412,-35.014,1003.816,-166.25,-2135.0,-3368.75,-66.88,-33.44,-299.44
521447.1608,175.436,-38.918,1008.147,-3010.0,-3255.0,-2353.75,-65.36,-25.84,-302.48
521447.2108,175.314,-49.715,1008.635,-2572.5,-3473.75,516.25,-63.84,-15.2,-305.52
521447.2608,178.425,-54.168,1012.722,-1400.0,-2922.5,3998.75,-65.36,-33.44,-307.04
521447.3108,161.833,-49.044,1010.831,-1942.5,-4348.75,3692.5,-62.32,-36.48,-293.36
521447.3608,186.477,-61.061,1007.232,-2546.25,-5066.25,1881.25,-53.2,-38.0,-313.12
521447.4108,177.571,-61.549,1006.866,-1968.75,-2913.75,1583.75,-54.72,-36.48,-296.4
521447.4608,169.397,-62.098,1009.55,-988.75,-2948.75,1872.5,-65.36,-30.4,-290.32
521447.5108,171.166,-52.033,1013.942,-595.0,-2730.0,1198.75,-54.72,-31.92,-305.52
521447.5608,150.121,-44.164,1013.942,-1155.0,-3543.75,621.25,-57.76,-36.48,-313.12
521447.6108,166.347,-53.558,1009.062,-2327.5,-5258.75,1618.75,-62.32,-27.36,-304.0
521447.6608,173.057,-54.839,1011.075,-1688.75,-4488.75,2371.25,-51.68,-28.88,-305.52
521447.7109,163.968,-52.46,1008.452,-2275.0,-4786.25,1828.75,-54.72,-30.4,-307.04
521447.7608,172.813,-59.658,1009.428,-2353.75,-5162.5,1531.25,-57.76,-15.2,-305.52
521447.8108,172.508,-55.144,1008.879,-2502.5,-5958.75,1225.0,-53.2,-38.0,-294.88
521447.8609,178.974,-64.294,1004.609,-2520.0,-6247.5,1172.5,-53.2,-16.72,-299.44
521447.9108,191.784,-65.209,1006.744,323.75,-4007.5,446.25,-63.84,-30.4,-304.0
521447.9608,168.97,-55.693,1005.585,-350.0,-3281.25,280.0,-65.36,-28.88,-294.88
521448.0108,174.155,-53.314,1008.391,-1942.5,-5477.5,-665.0,-51.68,-18.24,-300.96
521448.0608,179.767,-58.377,1008.513,-1653.75,-4847.5,201.25,-65.36,-21.28,-293.36
521448.1108,172.996,-56.852,1005.89,-1146.25,-4147.5,1076.25,-71.44,-27.36,-285.76
521448.1608,175.68,-59.658,1010.648,-2555.0,-6046.25,1435.0,-59.28,-18.24,-285.76
521448.2108,183.244,-61.793,1010.221,-1470.0,-5092.5,997.5,-72.96,-16.72,-296.4
521448.2608,170.8,-63.745,1007.171,-953.75,-5451.25,542.5,-57.76,-22.8,-281.2
521448.3108,187.819,-59.475,1005.341,-647.5,-6308.75,-1050.0,-68.4,-27.36,-296.4
521448.3608,188.368,-48.434,1004.304,-621.25,-4637.5,-866.25,-59.28,-25.84,-308.56
521448.4108,176.778,-47.641,1006.561,-1680.0,-5381.25,-253.75,-51.68,-44.08,-300.96
521448.4608,180.377,-57.462,1009.794,-1933.75,-4987.5,726.25,-56.24,-18.24,-287.28
521448.5108,174.704,-55.266,1005.402,-1776.25,-5250.0,936.25,-59.28,-30.4,-293.36
521448.5608,185.928,-62.769,1010.099,-1680.0,-5110.0,1391.25,-59.28,-19.76,-297.92
521448.6108,185.013,-59.78,1002.962,-918.75,-4812.5,962.5,-53.2,-24.32,-290.32
521448.6608,186.294,-59.963,1003.816,-2730.0,-5066.25,201.25,-76.0,-31.92,-307.04
521448.7108,196.054,-69.906,1008.818,-341.25,-3963.75,297.5,-71.44,-28.88,-300.96
521448.7608,184.403,-56.608,1006.256,288.75,-2581.25,-735.0,-62.32,-25.84,-299.44
521448.8108,175.741,-44.164,1005.646,-2073.75,-4042.5,-1426.25,-57.76,-33.44,-297.92
521448.8608,175.741,-55.693,1005.707,-2012.5,-4191.25,157.5,-72.96,-25.84,-305.52
521448.9108,184.098,-53.192,1009.062,-1102.5,-4392.5,1977.5,-53.2,-24.32,-302.48
521448.9608,177.876,-51.057,1007.171,-2196.25,-3990.0,1400.0,-72.96,-39.52,-294.88
521449.0108,185.562,-59.78,1010.099,-1977.5,-4182.5,778.75,-59.28,-22.8,-313.12
521449.0608,180.072,-54.107,1005.036,-1540.0,-3062.5,831.25,-44.08,-27.36,-300.96
521449.1108,176.473,-58.804,1008.208,-1338.75,-4068.75,892.5,-71.44,-36.48,-302.48
521449.1609,180.194,-58.194,1008.269,140.0,-3036.25,525.0,-71.44,-33.44,-296.4
521449.2108,171.349,-42.944,1003.511,-1225.0,-3185.0,-866.25,-50.16,-25.84,-297.92
521449.2608,172.447,-47.153,1010.831,-2371.25,-3333.75,-201.25,-56.24,-25.84,-308.56
521449.3108,167.994,-56.059,1012.6,-1513.75,-2852.5,2353.75,-56.24,-30.4,-307.04
521449.3608,172.264,-54.29,1008.208,-2143.75,-3727.5,2266.25,-69.92,-21.28,-294.88
521449.4108,170.434,-59.597,1008.025,-1995.0,-4060.0,1365.0,-62.32,-33.44,-293.36
521449.4608,172.203,-59.109,1005.341,-1986.25,-3955.0,595.0,-66.88,-28.88,-300.96
521449.5108,170.8,-60.634,1005.829,-1933.75,-3578.75,997.5,-53.2,-27.36,-300.96
521449.5608,179.767,-64.05,1011.929,-192.5,-2878.75,945.0,-66.88,-44.08,-305.52
521449.6108,151.829,-43.859,1009.428,-1242.5,-2406.25,-140.0,-60.8,-33.44,-290.32
521449.6608,156.282,-50.569,1012.234,-2686.25,-4305.0,-70.0,-60.8,-36.48,-300.96
521449.7108,167.811,-63.44,1007.72,-1601.25,-4051.25,2065.0,-56.24,-44.08,-302.48
521449.7608,167.506,-55.632,1010.221,-1015.0,-3412.5,2362.5,-48.64,-10.64,-302.48
521449.8108,156.221,-58.194,1008.086,-2756.25,-4602.5,1382.5,-57.76,-33.44,-297.92
521449.8608,172.569,-63.867,1010.648,-805.0,-4147.5,840.0,-53.2,-34.96,-304.0
521449.9108,160.979,-56.486,1009.062,-1583.75,-4042.5,218.75,-57.76,-21.28,-304.0
521449.9608,169.153,-58.987,1009.001,-866.25,-4506.25,-192.5,-54.72,-27.36,-302.48
521450.0108,162.87,-48.983,1013.271,-568.75,-3596.25,-787.5,-56.24,-22.8,-291.84
521450.0608,157.685,-43.127,1011.075,-1618.75,-4016.25,-551.25,-66.88,-33.44,-297.92
521450.1108,154.818,-55.632,1011.807,-2467.5,-4480.0,1828.75,-65.36,-36.48,-302.48
521450.1608,155.916,-58.865,1013.942,-1662.5,-5022.5,2432.5,-51.68,-24.32,-314.64
521450.2108,161.894,-58.56,1009.245,-2065.0,-5075.0,1067.5,-51.68,-4.56,-311.6
521450.2608,161.833,-60.634,1010.282,-1373.75,-5311.25,227.5,-65.36,-39.52,-300.96
521450.3108,167.445,-58.377,1008.452,-1968.75,-5162.5,253.75,-68.4,-30.4,-296.4
521450.3608,173.179,-68.381,1005.158,-1933.75,-5206.25,717.5,-53.2,-36.48,-308.56
521450.4108,180.743,-66.612,1009.672,490.0,-3561.25,-271.25,-44.08,-21.28,-304.0
521450.4608,154.452,-42.456,1006.927,-1618.75,-3605.0,-796.25,-39.52,-4.56,-296.4
521450.5108,158.173,-58.316,1006.5,-2248.75,-4086.25,962.5,-66.88,-22.8,-305.52
521450.5608,166.469,-61.122,1008.269,-1566.25,-4103.75,2555.0,-53.2,-22.8,-308.56
521450.6109,161.955,-55.876,1009.062,-1487.5,-3561.25,1408.75,-39.52,-31.92,-291.84
521450.6608,165.981,-68.137,1008.879,-1680.0,-4226.25,280.0,-41.04,-30.4,-288.8
521450.7108,163.968,-59.719,1011.075,-647.5,-3290.0,17.5,-48.64,-30.4,-293.36
521450.7608,151.585,-59.109,1012.783,-1093.75,-4235.0,-8.75,-57.76,-31.92,-300.96
521450.8108,159.576,-55.51,1012.295,-551.25,-4952.5,-96.25,-57.76,-34.96,-296.4
521450.8608,159.698,-43.615,1009.794,-901.25,-4077.5,-848.75,-48.64,-31.92,-305.52
521450.9108,155.855,-48.861,1009.062,-2380.0,-4628.75,175.0,-42.56,-30.4,-291.84
521450.9608,159.088,-53.741,1009.428,-2108.75,-4567.5,2091.25,-56.24,-25.84,-296.4
521451.0108,153.598,-58.682,1011.441,-2021.25,-4996.25,2388.75,-45.6,-33.44,-304.0
521451.0608,161.162,-61.854,1010.77,-2038.75,-5048.75,1400.0,-50.16,-24.32,-300.96
521451.1108,160.491,-61.244,1010.038,-1233.75,-5145.0,341.25,-62.32,-31.92,-288.8
521451.1608,166.042,-60.329,1006.988,-2423.75,-5101.25,-306.25,-44.08,-30.4,-293.36
521451.2108,166.774,-66.734,1007.293,-1767.5,-4987.5,533.75,-59.28,-36.48,-311.6
521451.2608,169.763,-52.155,1010.587,822.5,-2975.0,-61.25,-60.8,-28.88,-310.08
521451.3108,153.659,-48.434,1011.136,-2922.5,-4270.0,-70.0,-57.76,-30.4,-293.36
521451.3608,152.5,-59.658,1010.465,-2493.75,-4768.75,1216.25,-57.76,-34.96,-308.56
521451.4108,167.323,-62.586,1008.757,-1382.5,-4016.25,2231.25,-62.32,-27.36,-304.0
521451.4608,152.744,-55.815,1010.526,-1496.25,-3876.25,1207.5,-69.92,-19.76,-305.52
521451.5108,162.931,-70.211,1011.807,-1583.75,-5241.25,481.25,-59.28,-39.52,-311.6
521451.5608,154.33,-52.704,1011.075,-1268.75,-4655.0,0.0,-59.28,-25.84,-307.04
521451.6108,156.587,-62.525,1010.526,-1373.75,-5101.25,-376.25,-53.2,-27.36,-305.52
521451.6608,165.371,-51.057,1007.171,-183.75,-4865.0,-490.0,-57.76,-25.84,-307.04
521451.7108,166.591,-42.822,1010.77,-997.5,-4086.25,-621.25,-38.0,-21.28,-316.16
521451.7608,155.306,-46.36,1008.269,-2406.25,-4812.5,743.75,-47.12,-38.0,-300.96
521451.8108,161.223,-57.462,1008.635,-2152.5,-4322.5,2791.25,-53.2,-31.92,-288.8
521451.8608,160.308,-61.427,1009.184,-1986.25,-4182.5,2248.75,-71.44,-41.04,-297.92
521451.9108,158.295,-63.867,1009.306,-1793.75,-4331.25,831.25,-62.32,-18.24,-316.16
521451.961,163.175,-56.12,1006.012,-1583.75,-4007.5,105.0,-45.6,-18.24,-304.0
521452.0108,162.016,-58.255,1007.842,-2240.0,-4077.5,463.75,-68.4,-28.88,-296.4
521452.0608,168.36,-68.93,1006.378,-997.5,-3701.25,1067.5,-56.24,-27.36,-299.44
521452.1108,162.748,-54.778,1013.82,857.5,-1715.0,-271.25,-63.84,-13.68,-305.52
521452.1608,142.13,-46.238,1011.319,-3080.0,-3692.5,-271.25,-44.08,-33.44,-305.52
521452.2108,152.622,-62.22,1009.367,-1951.25,-4515.0,2082.5,-44.08,-28.88,-284.24
521452.2608,159.454,-62.83,1009.977,-1400.0,-4025.0,2432.5,-65.36,-27.36,-307.04
521452.3108,148.413,-55.571,1009.245,-2073.75,-4445.0,840.0,-62.32,-30.4,-320.72
521452.3608,158.722,-66.795,1010.404,-1907.5,-4795.0,218.75,-54.72,-21.28,-307.04
521452.4108,152.378,-55.876,1012.173,-1128.75,-3473.75,8.75,-51.68,-30.4,-307.04
521452.4608,149.694,-59.963,1007.964,-980.0,-4733.75,595.0,-48.64,-36.48,-294.88
521452.5108,158.051,-55.815,1009.611,-455.0,-4235.0,175.0,-48.64,-34.96,-307.04
521452.5608,148.108,-45.079,1009.428,-1470.0,-3780.0,-630.0,-41.04,-25.84,-310.08
521452.6108,146.705,-49.288,1011.38,-2161.25,-4628.75,166.25,-57.76,-38.0,-294.88
521452.6608,147.803,-60.451,1011.624,-2108.75,-4795.0,2625.0,-44.08,-31.92,-294.88
521452.7108,149.755,-60.817,1012.722,-1697.5,-4873.75,2143.75,-51.68,-42.56,-316.16
521452.7608,150.365,-63.074,1011.685,-2091.25,-4943.75,726.25,-59.28,-15.2,-305.52
521452.8108,155.367,-59.658,1011.441,-1251.25,-4646.25,-245.0,-60.8,-36.48,-311.6
521452.8608,154.269,-60.39,1006.439,-2345.0,-5363.75,148.75,-47.12,-28.88,-310.08
521452.9108,160.674,-65.697,1013.21,-1461.25,-5206.25,1041.25,-57.76,-22.8,-302.48
521452.9608,154.147,-45.811,1009.062,105.0,-3115.0,-183.75,-47.12,-38.0,-310.08
521453.0108,142.313,-44.652,1010.465,-2730.0,-4130.0,-437.5,-57.76,-24.32,-314.64
521453.0608,147.315,-60.207,1008.452,-2257.5,-4786.25,1732.5,-57.76,-31.92,-299.44
521453.1108,155.245,-64.66,1011.502,-1216.25,-4208.75,1916.25,-42.56,-18.24,-304.0
521453.1608,143.106,-54.351,1010.221,-1811.25,-4698.75,735.0,-39.52,-19.76,-299.44
521453.2108,155.55,-67.283,1013.393,-1312.5,-5276.25,96.25,-50.16,-28.88,-296.4
521453.2608,153.842,-57.218,1009.611,-1093.75,-4768.75,43.75,-65.36,-24.32,-310.08
521453.3108,148.535,-61.915,1012.478,-1487.5,-5748.75,0.0,-53.2,-39.52,-300.96
521453.3608,158.417,-53.924,1009.916,-350.0,-5302.5,-166.25,-48.64,-10.64,-294.88
521453.4109,154.696,-43.737,1007.232,-1303.75,-5433.75,-262.5,-56.24,-16.72,-308.56
521453.4608,156.404,-57.95,1009.733,-2353.75,-5346.25,1417.5,-60.8,-34.96,-297.92
521453.5108,152.439,-59.658,1009.428,-1382.5,-5565.0,2362.5,-65.36,-21.28,-304.0
521453.5608,156.709,-59.17,1011.746,-2135.0,-6028.75,1793.75,-42.56,-18.24,-299.44
521453.6108,160.369,-65.27,1010.831,-1645.0,-5127.5,1163.75,-42.56,-24.32,-304.0
521453.6608,157.38,-59.109,1007.171,-831.25,-5092.5,883.75,-59.28,-22.8,-308.56
521453.7108,164.273,-60.756,1004.548,-2432.5,-5600.0,367.5,-53.2,-24.32,-294.88
521453.7608,170.007,-69.967,1012.173,-1032.5,-5267.5,1032.5,-66.88,-7.6,-304.0
521453.8108,168.421,-58.926,1011.868,647.5,-3395.0,472.5,-57.76,-19.76,-302.48
521453.8608,147.559,-48.373,1012.112,-2380.0,-4681.25,-183.75,-62.32,-19.76,-300.96
521453.9108,156.587,-60.085,1010.221,-2406.25,-5538.75,796.25,-65.36,-39.52,-300.96
521453.9608,164.7,-62.464,1010.465,-1583.75,-4961.25,2178.75,-54.72,-15.2,-311.6
521454.0108,153.476,-63.013,1007.232,-2738.75,-4506.25,988.75,-45.6,-22.8,-297.92
521454.0608,162.748,-71.248,1011.685,-2108.75,-5521.25,280.0,-65.36,-25.84,-311.6
521454.1108,160.186,-63.745,1008.269,-1128.75,-4427.5,367.5,-62.32,-27.36,-297.92
521454.1608,162.992,-66.002,1009.489,-411.25,-5031.25,35.0,-69.92,-16.72,-299.44
521454.2108,164.7,-59.963,1007.171,87.5,-4856.25,-1023.75,-63.84,-28.88,-287.28
521454.2608,162.016,-50.203,1009.184,-883.75,-4418.75,-1890.0,-47.12,-24.32,-299.44
521454.3108,159.881,-50.752,1008.94,-1321.25,-4567.5,-840.0,-41.04,-31.92,-296.4
521454.3608,159.271,-56.303,1011.746,-1356.25,-4690.0,1076.25,-54.72,-21.28,-302.48
521454.4108,161.894,-54.656,1009.306,-1811.25,-5057.5,1268.75,-57.76,-18.24,-297.92
521454.4608,165.615,-62.281,1007.964,-1758.75,-4453.75,700.0,-45.6,-25.84,-297.92
521454.5108,160.491,-49.41,1008.33,-1811.25,-4865.0,122.5,-42.56,-27.36,-300.96
521454.5608,164.395,-57.828,1008.025,-2983.75,-5258.75,350.0,-54.72,-36.48,-313.12
521454.6108,176.9,-68.991,1013.515,-621.25,-4943.75,1163.75,-57.76,-24.32,-297.92
521454.6608,155.55,-45.628,1009.611,-822.5,-2948.75,323.75,-57.76,-28.88,-299.44
521454.7108,154.452,-47.336,1009.672,-2450.0,-5153.75,-420.0,-50.16,-28.88,-307.04
521454.7608,159.576,-64.66,1013.576,-1916.25,-4803.75,1443.75,-57.76,-25.84,-314.64
521454.8108,162.748,-57.401,1007.232,-953.75,-5145.0,1295.0,-74.48,-22.8,-310.08
521454.8609,163.358,-54.595,1006.988,-2668.75,-4856.25,988.75,-63.84,-16.72,-293.36
521454.9108,163.968,-61.793,1012.417,-1321.25,-5145.0,1032.5,-51.68,-10.64,-304.0
521454.9608,166.164,-52.033,1011.929,-1995.0,-4847.5,630.0,-48.64,-21.28,-300.96
521455.0108,162.016,-63.745,1007.659,-2091.25,-4812.5,980.0,-65.36,-41.04,-294.88
521455.0608,169.702,-62.586,1006.378,-175.0,-4453.75,936.25,-53.2,-39.52,-305.52
521455.1108,163.419,-50.874,1006.805,-857.5,-3631.25,-420.0,-50.16,-27.36,-300.96
521455.1608,156.038,-55.449,1009.062,-2056.25,-3963.75,-227.5,-60.8,-27.36,-311.6
521455.2108,157.319,-57.889,1010.526,-1575.0,-3963.75,1242.5,-59.28,-21.28,-300.96
521455.2608,157.38,-57.157,1009.428,-1942.5,-4357.5,1688.75,-85.12,-19.76,-310.08
521455.3108,160.918,-61.915,1009.611,-1907.5,-5092.5,1408.75,-50.16,-19.76,-297.92
521455.3608,159.088,-59.597,1010.221,-1557.5,-4733.75,1050.0,-41.04,-39.52,-299.44
521455.4108,165.188,-61.183,1005.219,-3036.25,-5188.75,280.0,-47.12,-31.92,-313.12
521455.4608,165.859,-72.468,1008.391,-2065.0,-4900.0,1137.5,-71.44,-24.32,-308.56
521455.5108,166.225,-57.706,1008.574,428.75,-3237.5,148.75,-60.8,-30.4,-310.08
521455.5608,154.391,-52.216,1008.574,-2345.0,-4436.25,-542.5,-56.24,-24.32,-288.8
521455.6108,158.356,-62.647,1009.123,-2415.0,-4865.0,350.0,-51.68,-19.76,-304.0
521455.6608,164.822,-63.623,1008.086,-1365.0,-4226.25,1688.75,-69.92,-31.92,-307.04
521455.7108,154.635,-59.597,1006.744,-2336.25,-4375.0,726.25,-63.84,-28.88,-308.56
521455.7608,162.199,-67.161,1011.502,-1785.0,-4690.0,560.0,-51.68,-31.92,-311.6
521455.8108,158.051,-57.035,1013.271,-1347.5,-4235.0,218.75,-57.76,-19.76,-299.44
521455.8608,155.367,-64.965,1008.696,-1435.0,-4943.75,26.25,-59.28,-22.8,-307.04
521455.9108,163.48,-61.244,1009.733,-96.25,-4173.75,-402.5,-39.52,-22.8,-294.88
521455.9608,161.223,-47.275,1007.903,-1216.25,-3946.25,-1251.25,-45.6,-22.8,-308.56
521456.0108,155.001,-49.959,1009.611,-2108.75,-4130.0,-43.75,-77.52,-27.36,-288.8
521456.0608,158.356,-57.706,1011.014,-1811.25,-4051.25,2353.75,-71.44,-21.28,-302.48
521456.1108,154.269,-57.279,1015.528,-1933.75,-4681.25,2292.5,-62.32,-34.96,-310.08
521456.1608,162.504,-65.392,1007.72,-2441.25,-4838.75,1137.5,-44.08,-18.24,-299.44
521456.211,158.173,-63.135,1007.415,-1470.0,-4777.5,393.75,-56.24,-36.48,-299.44
521456.2608,160.186,-60.268,1008.513,-2362.5,-5337.5,542.5,-50.16,-13.68,-304.0
521456.3108,170.068,-75.457,1010.038,-1356.25,-4611.25,1093.75,-50.16,-12.16,-297.92
521456.3608,160.003,-50.447,1011.258,-192.5,-3255.0,-498.75,-51.68,-13.68,-291.84
521456.4108,149.328,-50.264,1009.611,-2808.75,-4252.5,-691.25,-57.76,-28.88,-285.76
521456.4608,157.075,-66.246,1009.184,-1706.25,-4786.25,1811.25,-71.44,-13.68,-300.96
521456.5108,159.698,-64.843,1010.16,-1496.25,-4480.0,2563.75,-51.68,-13.68,-308.56
521456.5608,153.964,-58.56,1008.818,-1715.0,-4375.0,420.0,-39.52,-25.84,-294.88
521456.6108,159.881,-70.089,1011.746,-1233.75,-4488.75,-245.0,-72.96,-9.12,-296.4
521456.6608,157.563,-59.109,1011.014,-901.25,-4252.5,-61.25,-79.04,-10.64,-308.56
521456.7108,155.611,-63.623,1009.001,-1023.75,-5057.5,288.75,-53.2,-36.48,-291.84
521456.7608,162.382,-62.342,1010.709,-288.75,-4900.0,-8.75,-53.2,-22.8,-308.56
521456.8108,165.493,-46.421,1006.866,-1373.75,-4305.0,-831.25,-48.64,-36.48,-293.36
521456.8608,152.317,-52.521,1012.051,-2511.25,-4488.75,708.75,-68.4,-28.88,-296.4
521456.9108,158.844,-60.695,1008.757,-2091.25,-4532.5,2800.0,-54.72,-7.6,-294.88
521456.9608,160.613,-62.952,1009.55,-2353.75,-4593.75,2555.0,-45.6,-19.76,-307.04
521457.0108,158.356,-70.638,1009.916,-2161.25,-4856.25,1548.75,-50.16,-34.96,-310.08
521457.0608,159.881,-68.381,1009.001,-1295.0,-4576.25,638.75,-56.24,-25.84,-311.6
521457.1108,161.833,-63.501,1006.866,-2791.25,-5127.5,210.0,-34.96,-19.76,-300.96
521457.1608,165.249,-73.444,1005.341,-1925.0,-4970.0,1268.75,-56.24,-22.8,-294.88
521457.2108,163.602,-57.584,1012.051,612.5,-2835.0,131.25,-57.76,-31.92,-311.6
521457.2608,145.912,-57.157,1012.722,-2957.5,-4593.75,-61.25,-59.28,-9.12,-300.96
521457.3108,153.293,-68.686,1011.685,-2082.5,-5276.25,1032.5,-57.76,-7.6,-293.36
521457.3608,163.541,-64.233,1009.794,-1478.75,-4401.25,1680.0,-48.64,-21.28,-294.88
521457.4108,156.038,-62.281,1008.635,-1723.75,-4243.75,901.25,-54.72,-42.56,-294.88
521457.4608,162.87,-71.675,1009.489,-1671.25,-4961.25,385.0,-56.24,-22.8,-288.8
521457.5108,156.587,-64.538,1008.147,-1076.25,-4121.25,148.75,-45.6,-30.4,-310.08
521457.5608,153.903,-69.54,1012.234,-656.25,-4690.0,-717.5,-50.16,-13.68,-299.44
521457.6108,162.87,-60.207,1007.598,840.0,-4698.75,-2047.5,-51.68,-44.08,-291.84
521457.661,157.258,-45.933,1009.55,-875.0,-3902.5,-2038.75,-72.96,-28.88,-310.08
521457.7108,154.025,-48.922,1009.733,-971.25,-4480.0,-525.0,-54.72,-44.08,-294.88
521457.7609,156.282,-52.46,1011.99,-1505.0,-4480.0,1618.75,-54.72,-28.88,-299.44
521457.8108,156.953,-51.667,1011.624,-1881.25,-4593.75,1653.75,-65.36,-24.32,-307.04
521457.8608,157.685,-56.608,1010.587,-2485.0,-5258.75,1356.25,-50.16,-31.92,-323.76
521457.9108,157.319,-59.17,1009.367,-1960.0,-5022.5,1225.0,-62.32,-10.64,-308.56
521457.9608,163.236,-59.109,1006.439,-2808.75,-5302.5,778.75,-41.04,-31.92,-300.96
521458.0108,177.083,-71.187,1011.441,-1233.75,-4488.75,971.25,-59.28,-28.88,-304.0
521458.0608,162.565,-54.778,1011.807,-17.5,-2380.0,323.75,-45.6,-31.92,-307.04
521458.1108,150.365,-50.874,1010.526,-2870.0,-5118.75,288.75,-68.4,-25.84,-305.52
521458.1608,160.003,-65.453,1008.208,-2231.25,-4593.75,2231.25,-60.8,-16.72,-299.44
521458.2108,157.685,-63.44,1012.661,-1645.0,-4716.25,2581.25,-54.72,-24.32,-302.48
521458.2608,159.027,-63.318,1008.879,-3097.5,-5363.75,1190.0,-60.8,-30.4,-302.48
521458.3108,165.859,-73.261,1011.929,-2065.0,-4935.0,1023.75,-42.56,-38.0,-293.36
521458.3608,156.099,-63.379,1011.929,-1933.75,-4637.5,1128.75,-66.88,-27.36,-311.6
521458.4108,163.053,-74.054,1010.343,-866.25,-5267.5,463.75,-56.24,-12.16,-300.96
521458.4608,164.822,-68.625,1008.574,78.75,-4523.75,-840.0,-48.64,-31.92,-307.04
521458.5108,162.199,-48.129,1004.792,-691.25,-4173.75,-2187.5,-59.28,-30.4,-307.04
521458.5608,158.966,-56.608,1009.916,-1933.75,-4287.5,-323.75,-60.8,-36.48,-291.84
521458.6108,157.319,-62.159,1012.722,-1216.25,-4121.25,1968.75,-41.04,-28.88,-304.0
521458.6608,158.844,-58.194,1007.11,-2126.25,-5022.5,1951.25,-44.08,-19.76,-297.92
521458.7108,158.356,-63.867,1010.892,-2371.25,-4891.25,1128.75,-50.16,-15.2,-316.16
521458.7608,154.452,-58.377,1011.197,-1776.25,-5285.0,551.25,-45.6,-22.8,-294.88
521458.8108,162.077,-67.466,1003.084,-2502.5,-5171.25,437.5,-60.8,-42.56,-297.92
521458.8608,172.813,-75.579,1010.465,-1312.5,-5066.25,1190.0,-59.28,-16.72,-296.4
521458.9108,160.369,-51.301,1009.977,-437.5,-3342.5,78.75,-60.8,-30.4,-294.88
521458.9608,156.77,-52.643,1011.441,-2222.5,-4445.0,-560.0,-57.76,-25.84,-294.88
521459.0108,159.332,-64.05,1010.892,-2100.0,-4488.75,1137.5,-62.32,-25.84,-308.56
521459.0608,162.382,-66.246,1009.794,-1583.75,-4305.0,1907.5,-56.24,-10.64,-302.48
521459.111,158.417,-63.623,1007.476,-2082.5,-4751.25,1408.75,-51.68,-13.68,-311.6
521459.1608,163.053,-73.749,1011.868,-988.75,-4138.75,271.25,-54.72,-34.96,-290.32
521459.2108,156.709,-65.209,1005.585,-1400.0,-4243.75,-446.25,-63.84,-44.08,-311.6
521459.2608,155.977,-70.333,1010.587,-568.75,-4725.0,-805.0,-60.8,-28.88,-290.32
521459.3108,163.419,-54.778,1006.195,420.0,-4182.5,-1286.25,-47.12,-41.04,-299.44
521459.3608,158.966,-48.434,1008.452,-1023.75,-4103.75,-1531.25,-47.12,-22.8,-305.52
521459.4108,154.635,-52.704,1011.075,-1592.5,-4611.25,192.5,-71.44,-33.44,-305.52
521459.4608,156.404,-56.791,1010.831,-1461.25,-4383.75,1636.25,-53.2,-39.52,-299.44
521459.5108,158.051,-56.913,1009.611,-2047.5,-4663.75,1365.0,-56.24,-16.72,-299.44
521459.5608,159.271,-64.782,1012.112,-1575.0,-4576.25,883.75,-65.36,-22.8,-299.44
521459.6108,158.783,-57.218,1008.635,-1277.5,-4506.25,568.75,-57.76,-19.76,-300.96
521459.6608,164.151,-63.867,1009.062,-2187.5,-5521.25,498.75,-45.6,-38.0,-304.0
521459.7108,173.057,-69.235,1008.33,-271.25,-3666.25,980.0,-60.8,-36.48,-305.52
521459.7608,162.321,-44.896,1010.892,-367.5,-2870.0,0.0,-54.72,-18.24,-299.44
521459.8108,151.951,-55.449,1011.38,-2975.0,-4173.75,437.5,-53.2,-34.96,-311.6
521459.8608,155.306,-64.416,1009.977,-1960.0,-4725.0,2852.5,-71.44,-28.88,-293.36
521459.9108,157.746,-68.32,1013.942,-1706.25,-4471.25,2240.0,-66.88,-18.24,-314.64
521459.9608,154.574,-64.172,1011.807,-2397.5,-4900.0,498.75,-57.76,-16.72,-307.04
521460.0108,163.846,-70.333,1011.136,-1408.75,-4970.0,236.25,-47.12,-22.8,-287.28
521460.0608,157.319,-57.645,1009.245,-1575.0,-4226.25,61.25,-59.28,-33.44,-314.64
521460.1108,157.929,-67.71,1009.489,-735.0,-4838.75,481.25,-68.4,-44.08,-299.44
521460.1608,164.7,-55.815,1010.77,-218.75,-4331.25,-166.25,-45.6,-27.36,-299.44
521460.2108,156.892,-49.776,1006.805,-1688.75,-3780.0,-1277.5,-48.64,-21.28,-307.04
521460.2608,150.365,-53.741,1012.905,-2143.75,-4488.75,271.25,-63.84,-34.96,-313.12
521460.3108,158.112,-60.695,1008.635,-1522.5,-4348.75,2633.75,-72.96,-9.12,-288.8
521460.3608,156.831,-60.756,1008.269,-2047.5,-4690.0,1347.5,-54.72,-33.44,-300.96
521460.4108,157.807,-66.368,1011.807,-1706.25,-4033.75,-61.25,-56.24,-9.12,-294.88
521460.4608,149.999,-55.144,1009.733,-2388.75,-5057.5,113.75,-53.2,-25.84,-313.12
521460.5108,159.027,-63.623,1008.635,-2765.0,-5748.75,1356.25,-57.76,-27.36,-305.52
521460.5609,171.837,-72.468,1008.757,-673.75,-4908.75,1443.75,-53.2,-24.32,-302.48
521460.6108,151.829,-45.201,1009.062,-2196.25,-4077.5,-218.75,-54.72,-15.2,-305.52
521460.6608,146.278,-56.059,1009.855,-3298.75,-4270.0,-113.75,-56.24,-27.36,-296.4
521460.7108,155.062,-73.81,1015.162,-1365.0,-5495.0,1111.25,-50.16,-22.8,-297.92
521460.7608,156.099,-68.442,1008.757,-4060.0,-5477.5,630.0,-62.32,-19.76,-305.52
521460.8108,147.498,-75.884,1008.818,-3867.5,-7743.75,2520.0,-44.08,-27.36,-300.96
521460.8608,185.501,-80.337,1008.574,-393.75,-4471.25,682.5,-48.64,-28.88,-299.44
521460.9108,147.864,-69.174,998.143,-4383.75,-5320.0,-656.25,-56.24,-25.84,-304.0
521460.9608,166.408,-76.86,1002.413,-2275.0,-8470.0,525.0,-48.64,-30.4,-304.0
521461.0108,185.806,-106.445,1018.151,6816.25,-10605.0,10193.75,-60.8,-16.72,-305.52
521461.0608,212.707,-45.75,998.265,8076.25,-4690.0,2205.0,-69.92,-19.76,-282.72
521461.1108,171.776,-29.768,1004.67,-1225.0,-1820.0,-8032.5,-57.76,-10.64,-288.8
521461.1608,172.874,-57.34,1001.437,-367.5,-2966.25,-5451.25,-69.92,-36.48,-316.16
521461.2108,165.92,-37.21,1003.572,-953.75,1076.25,997.5,-47.12,-28.88,-297.92
521461.2608,144.021,-47.153,1026.081,-1128.75,-411.25,-3666.25,-47.12,-22.8,-294.88
521461.3108,116.998,-26.901,1019.676,-3342.5,-1076.25,-9800.0,-56.24,-45.6,-296.4
521461.3608,149.328,-33.001,1002.047,-1767.5,-7000.0,-6825.0,-63.84,-25.84,-308.56
521461.4108,180.133,-48.922,1017.297,-1898.75,-3727.5,-166.25,-60.8,-21.28,-293.36
521461.4608,154.757,-44.957,1016.992,-813.75,-3578.75,3010.0,-53.2,-19.76,-305.52
521461.5108,170.251,-53.131,996.191,-3141.25,-6125.0,2240.0,-50.16,-30.4,-305.52
521461.5608,184.281,-66.49,1002.352,-3447.5,-4252.5,1330.0,-63.84,-21.28,-304.0
521461.6108,174.826,-57.889,1007.781,-1618.75,-1128.75,840.0,-56.24,-33.44,-304.0
521461.6608,146.888,-69.052,1014.552,-3806.25,-1277.5,1540.0,-60.8,-25.84,-296.4
521461.7108,145.363,-74.664,1016.565,-2397.5,-1837.5,3027.5,-45.6,-19.76,-294.88
521461.7608,135.054,-75.884,1018.761,-2511.25,-2940.0,3307.5,-48.64,-27.36,-297.92
521461.8108,132.126,-79.91,1014.247,-918.75,-5232.5,1128.75,-54.72,-19.76,-302.48
521461.8608,157.807,-64.965,1005.28,192.5,-7227.5,-988.75,-65.36,-22.8,-302.48
521461.9108,163.236,-56.303,1002.657,-743.75,-3885.0,-551.25,-60.8,-30.4,-297.92
521461.9608,153.903,-48.739,1008.086,-1487.5,-2861.25,595.0,-51.68,-28.88,-294.88
521462.0109,137.982,-60.695,1016.382,-2222.5,-1680.0,595.0,-62.32,-39.52,-304.0
521462.0608,122.488,-61.366,1026.203,-1155.0,-5425.0,166.25,-60.8,-33.44,-314.64
521462.1108,132.736,-56.974,1014.43,-2922.5,-9380.0,-1417.5,-60.8,-31.92,-310.08
521462.1608,147.315,-56.547,1010.465,-1181.25,-10535.0,183.75,-62.32,-7.6,-319.2
521462.2108,174.216,-50.996,996.862,-1356.25,-10220.0,1846.25,-48.64,-33.44,-300.96
521462.2608,168.787,-53.375,1008.269,-516.25,-8688.75,1688.75,-66.88,-33.44,-299.44
521462.3108,148.474,-51.606,1011.868,-1093.75,-5958.75,743.75,-59.28,-18.24,-300.96
521462.3608,165.615,-49.959,1010.953,-3158.75,-6510.0,603.75,-57.76,-28.88,-294.88
521462.4108,183.976,-54.9,1004.67,-4655.0,-6763.75,17.5,-72.96,-12.16,-296.4
521462.4608,174.948,-66.368,1008.635,-3185.0,-4926.25,-428.75,-48.64,-30.4,-307.04
521462.5108,200.629,-75.03,1000.827,-2931.25,-3062.5,831.25,-69.92,-25.84,-302.48
521462.5608,165.676,-72.346,1005.524,-700.0,-1636.25,2205.0,-62.32,-28.88,-304.0
521462.6108,168.421,-76.128,1005.463,358.75,-35.0,3053.75,-50.16,-25.84,-311.6
521462.6608,170.19,-65.758,1009.245,61.25,-2546.25,953.75,-51.68,-30.4,-294.88
521462.7108,143.655,-75.64,1010.526,17.5,-1461.25,8.75,-60.8,-38.0,-304.0
521462.7608,162.443,-58.133,1010.343,1137.5,481.25,603.75,-82.08,-38.0,-307.04
521462.8108,157.014,-46.604,1013.271,-1268.75,2030.0,1548.75,-47.12,-33.44,-299.44
521462.8608,106.384,-58.865,1014.308,-1015.0,-1548.75,1268.75,-45.6,-21.28,-325.28
521462.9108,150.243,-59.475,1013.332,-2248.75,-4523.75,638.75,-45.6,-28.88,-305.52
521462.9608,141.398,-55.876,1011.197,-988.75,-2878.75,280.0,-57.76,-38.0,-302.48
521463.0108,141.032,-56.181,1008.574,-2091.25,-3263.75,-673.75,-51.68,-16.72,-307.04
521463.0608,143.472,-63.196,1012.783,-1872.5,-4060.0,-341.25,-41.04,-33.44,-310.08
521463.1108,146.217,-63.867,1014.43,560.0,-3263.75,-551.25,-68.4,-27.36,-304.0
521463.1608,131.028,-43.798,1012.966,367.5,-3333.75,-892.5,-50.16,-25.84,-302.48
521463.2108,131.821,-47.214,1011.746,-1820.0,-5985.0,402.5,-48.64,-38.0,-297.92
521463.2608,145.668,-55.144,1012.6,-1855.0,-5827.5,936.25,-54.72,-31.92,-290.32
521463.3108,140.422,-54.717,1009.855,-1487.5,-5232.5,1242.5,-50.16,-31.92,-296.4
521463.3608,144.143,-57.889,1011.685,-1583.75,-5915.0,1470.0,-51.68,-25.84,-307.04
521463.4108,150.426,-53.985,1012.356,-1093.75,-5976.25,236.25,-45.6,-24.32,-304.0
521463.4609,146.278,-59.231,1010.16,-1146.25,-5906.25,192.5,-57.76,-36.48,-296.4
521463.5108,154.452,-58.438,1008.025,-315.0,-5346.25,87.5,-57.76,-22.8,-300.96
521463.5608,145.729,-43.066,1009.855,-87.5,-5215.0,-638.75,-57.76,-45.6,-290.32
521463.6108,147.01,-42.517,1011.014,-1330.0,-5188.75,-848.75,-62.32,-48.64,-313.12
521463.6608,150.609,-45.14,1008.94,-1977.5,-5503.75,350.0,-47.12,-34.96,-308.56
521463.7108,150.487,-49.715,1011.563,-1172.5,-5311.25,1741.25,-53.2,-31.92,-322.24
521463.7608,150.853,-47.153,1013.271,-1575.0,-4847.5,1470.0,-48.64,-34.96,-311.6
521463.8108,147.376,-48.861,1012.539,-1330.0,-4847.5,866.25,-56.24,-19.76,-297.92
521463.8608,155.001,-49.898,1007.537,-2222.5,-4978.75,411.25,-54.72,-36.48,-307.04
521463.9108,158.661,-56.974,1010.831,-1951.25,-5696.25,665.0,-59.28,-41.04,-297.92
521463.9608,156.648,-47.946,1009.062,-306.25,-2572.5,218.75,-62.32,-36.48,-308.56
521464.0108,142.679,-40.26,1010.892,-1303.75,-3727.5,-35.0,-59.28,-31.92,-293.36
521464.0608,148.718,-47.885,1013.576,-2432.5,-4488.75,533.75,-72.96,-24.32,-304.0
521464.1108,151.768,-48.434,1015.894,-1452.5,-4103.75,1916.25,-60.8,-33.44,-296.4
521464.1608,146.034,-43.493,1009.306,-2248.75,-4418.75,1531.25,-39.52,-30.4,-310.08
521464.2108,158.356,-56.669,1013.454,-2397.5,-4786.25,1032.5,-53.2,-7.6,-313.12
521464.2608,148.291,-51.972,1012.844,-1680.0,-4226.25,997.5,-54.72,-39.52,-299.44
521464.3108,149.267,-55.632,1012.112,-1338.75,-5276.25,1111.25,-53.2,-34.96,-313.12
521464.3608,165.31,-45.994,1011.014,-560.0,-5092.5,122.5,-54.72,-31.92,-291.84
521464.4108,151.097,-40.077,1008.33,-1540.0,-4707.5,-183.75,-39.52,-34.96,-302.48
521464.4608,153.842,-46.177,1008.269,-2135.0,-4497.5,341.25,-54.72,-30.4,-310.08
521464.5108,150.487,-50.752,1013.881,-2170.0,-4410.0,1758.75,-54.72,-33.44,-313.12
521464.5608,147.986,-53.07,1011.929,-2441.25,-4681.25,2336.25,-68.4,-34.96,-297.92
521464.6108,151.951,-58.255,1009.611,-1933.75,-4690.0,2117.5,-48.64,-18.24,-307.04
521464.6608,152.073,-54.839,1008.94,-1977.5,-4550.0,1085.0,-54.72,-39.52,-307.04
521464.7108,150.914,-61.854,1008.635,-2633.75,-4313.75,358.75,-60.8,-27.36,-290.32
521464.7608,157.868,-66.551,1014.735,-332.5,-3648.75,463.75,-59.28,-34.96,-300.96
521464.8108,147.803,-46.97,1011.929,-61.25,-3167.5,297.5,-53.2,-25.84,-300.96
521464.8608,144.448,-44.957,1011.319,-2721.25,-4585.0,-201.25,-39.52,-24.32,-300.96
521464.9109,150.182,-61.183,1009.489,-1942.5,-4865.0,2196.25,-50.16,-28.88,-304.0
521464.9608,152.439,-57.889,1011.319,-1312.5,-4226.25,2248.75,-41.04,-34.96,-299.44
521465.0108,151.158,-57.523,1010.892,-2091.25,-5136.25,743.75,-65.36,-18.24,-287.28
521465.0608,159.332,-63.623,1010.831,-1583.75,-4628.75,393.75,-66.88,-22.8,-308.56
521465.1108,144.265,-56.913,1009.306,-1662.5,-4742.5,376.25,-45.6,-24.32,-299.44
521465.1608,155.367,-61.183,1010.221,-883.75,-5083.75,411.25,-44.08,-31.92,-288.8
521465.2108,156.038,-55.449,1009.306,-262.5,-4348.75,-35.0,-53.2,-12.16,-304.0
521465.2608,148.535,-44.103,1011.868,-1513.75,-4322.5,-332.5,-69.92,-34.96,-300.96
521465.3108,149.023,-48.373,1012.966,-2388.75,-4427.5,778.75,-39.52,-30.4,-311.6
521465.3608,148.596,-56.12,1011.441,-1986.25,-4086.25,2318.75,-39.52,-19.76,-308.56
521465.4108,148.535,-56.486,1011.258,-1872.5,-4436.25,1671.25,-44.08,-19.76,-310.08
521465.4608,151.463,-60.207,1009.855,-1898.75,-5031.25,1085.0,-63.84,-25.84,-285.76
521465.5108,151.585,-57.157,1007.659,-1960.0,-4996.25,455.0,-59.28,-21.28,-307.04
521465.5608,152.866,-58.316,1006.317,-2353.75,-5197.5,1233.75,-59.28,-7.6,-296.4
521465.6108,163.175,-70.516,1010.831,-638.75,-4436.25,708.75,-42.56,-31.92,-310.08
521465.6608,145.668,-41.236,1007.476,-1522.5,-3325.0,-542.5,-60.8,-42.56,-297.92
521465.7108,145.119,-51.911,1008.696,-2826.25,-4436.25,35.0,-65.36,-19.76,-305.52
521465.7608,156.099,-63.196,1009.794,-2126.25,-4663.75,2660.0,-45.6,-24.32,-310.08
521465.8108,152.195,-61.915,1010.526,-1251.25,-2992.5,2012.5,-53.2,-24.32,-317.68
521465.8608,145.851,-59.78,1013.637,-2362.5,-4287.5,542.5,-59.28,-31.92,-293.36
521465.9108,162.809,-61.488,1009.733,-953.75,-2957.5,-577.5,-50.16,-41.04,-305.52
521465.9608,146.888,-55.449,1008.513,-1163.75,-2345.0,113.75,-54.72,-19.76,-302.48
521466.0108,149.572,-61.671,1008.879,-525.0,-3561.25,586.25,-51.68,-12.16,-311.6
521466.0608,143.838,-47.519,1012.844,-542.5,-2528.75,-367.5,-47.12,-24.32,-290.32
521466.1108,133.224,-43.798,1014.369,-1671.25,-3123.75,-612.5,-62.32,-27.36,-305.52
521466.1608,140.544,-53.009,1013.942,-2152.5,-3911.25,1610.0,-42.56,-21.28,-307.04
521466.2108,140.849,-58.56,1014.552,-1610.0,-4060.0,2712.5,-59.28,-28.88,-307.04
521466.2608,136.762,-57.95,1014.979,-1776.25,-4016.25,1715.0,-30.4,-22.8,-302.48
521466.3108,140.971,-63.745,1013.149,-743.75,-3683.75,1881.25,-39.52,-28.88,-305.52
521466.3609,137.311,-52.094,1010.465,-1732.5,-4681.25,1487.5,-57.76,-38.0,-308.56
521466.4108,147.62,-62.22,1008.208,-2073.75,-4410.0,787.5,-53.2,-21.28,-294.88
521466.4608,146.095,-59.231,1014.674,455.0,-2633.75,-341.25,-54.72,-12.16,-320.72
521466.5108,131.76,-42.639,1011.197,-1338.75,-3193.75,-341.25,-66.88,-36.48,-302.48
521466.5608,131.15,-57.035,1014.491,-2353.75,-4637.5,1216.25,-50.16,-33.44,-302.48
521466.6108,140.483,-62.708,1012.295,-2135.0,-4165.0,2231.25,-69.92,-21.28,-304.0
521466.6608,133.773,-59.536,1012.783,-1295.0,-3526.25,1653.75,-45.6,-22.8,-308.56
521466.7108,138.409,-65.087,1013.454,-2633.75,-5285.0,560.0,-47.12,-18.24,-302.48
521466.7608,140.117,-62.037,1017.48,-1111.25,-4208.75,-43.75,-69.92,-28.88,-314.64
521466.8108,130.967,-58.804,1013.637,-1855.0,-5398.75,113.75,-54.72,-30.4,-307.04
521466.8608,137.25,-62.525,1011.868,-586.25,-5416.25,315.0,-45.6,-24.32,-307.04
521466.9108,146.522,-48.556,1009.123,-752.5,-4812.5,-455.0,-60.8,-7.6,-311.6
521466.9608,135.481,-50.203,1011.563,-2485.0,-5075.0,96.25,-54.72,-33.44,-296.4
521467.0108,140.361,-58.194,1010.465,-2205.0,-5180.0,1347.5,-44.08,-21.28,-293.36
521467.0608,144.509,-59.719,1009.428,-1820.0,-4567.5,1995.0,-53.2,-22.8,-297.92
521467.1108,142.13,-61.427,1009.855,-2213.75,-4488.75,936.25,-34.96,-31.92,-316.16
521467.1608,143.289,-63.684,1011.624,-1312.5,-4068.75,551.25,-53.2,-38.0,-296.4
521467.2108,143.411,-58.011,1010.221,-2038.75,-4287.5,542.5,-50.16,-22.8,-296.4
521467.2608,140.544,-67.039,1010.648,-1916.25,-4453.75,647.5,-47.12,-22.8,-299.44
521467.3108,148.352,-63.745,1014.308,936.25,-2633.75,-61.25,-36.48,-28.88,-300.96
521467.3608,124.501,-45.018,1013.332,-2625.0,-3657.5,-700.0,-59.28,-22.8,-304.0
521467.4108,128.405,-61.732,1013.881,-2318.75,-4156.25,1093.75,-50.16,-21.28,-297.92
521467.4608,137.738,-64.172,1011.624,-1487.5,-4366.25,2660.0,-39.52,-27.36,-313.12
521467.5108,133.712,-61.366,1012.173,-953.75,-3456.25,1050.0,-47.12,-19.76,-294.88
521467.5608,137.799,-63.013,1013.149,-2187.5,-4725.0,-245.0,-47.12,-33.44,-308.56
521467.6108,133.285,-56.669,1014.003,-1312.5,-3928.75,-481.25,-34.96,-21.28,-323.76
521467.6608,132.675,-60.451,1010.465,-1373.75,-4541.25,525.0,-50.16,-19.76,-310.08
521467.7108,140.605,-58.194,1009.855,-525.0,-4628.75,393.75,-39.52,-24.32,-308.56
521467.7608,133.224,-48.861,1010.404,-1120.0,-3605.0,-201.25,-50.16,-36.48,-304.0
521467.811,129.991,-47.946,1012.051,-2161.25,-4182.5,26.25,-62.32,-10.64,-311.6
521467.8608,133.041,-60.756,1012.844,-2301.25,-3998.75,2065.0,-38.0,-21.28,-313.12
521467.9108,131.333,-63.196,1013.82,-1793.75,-3998.75,2598.75,-44.08,-18.24,-304.0
521467.9608,128.344,-62.586,1014.247,-1776.25,-4287.5,1295.0,-63.84,-34.96,-307.04
521468.0108,128.466,-61.366,1014.857,-1233.75,-4672.5,-8.75,-38.0,-25.84,-307.04
521468.0608,129.076,-58.682,1012.6,-2213.75,-4970.0,-96.25,-31.92,-15.2,-305.52
521468.1108,136.64,-69.906,1010.648,-1636.25,-4926.25,1120.0,-30.4,-38.0,-304.0
521468.1608,141.947,-63.379,1015.711,472.5,-3517.5,533.75,-36.48,-45.6,-304.0
521468.2108,118.95,-46.055,1012.783,-2581.25,-4506.25,-577.5,-47.12,-31.92,-308.56
521468.2608,130.052,-63.684,1011.014,-1898.75,-4830.0,1347.5,-50.16,-24.32,-305.52
521468.3108,132.187,-65.392,1011.258,-1452.5,-4900.0,2441.25,-41.04,-22.8,-310.08
521468.3608,127.185,-57.828,1013.393,-1408.75,-4830.0,507.5,-66.88,-30.4,-302.48
521468.4108,135.786,-66.978,1012.905,-2205.0,-4987.5,26.25,-47.12,-34.96,-319.2
521468.4608,137.067,-55.815,1014.369,-735.0,-4410.0,-140.0,-39.52,-21.28,-319.2
521468.5108,132.553,-64.477,1010.404,-1233.75,-4847.5,-140.0,-51.68,-31.92,-294.88
521468.5608,138.348,-61.427,1013.088,-166.25,-4707.5,236.25,-41.04,-13.68,-311.6
521468.6108,135.847,-46.055,1007.842,-1085.0,-4147.5,-367.5,-51.68,-13.68,-320.72
521468.6608,129.198,-54.961,1013.088,-2520.0,-4628.75,988.75,-42.56,-22.8,-300.96
521468.7108,133.712,-60.634,1011.258,-2091.25,-4576.25,2073.75,-30.4,-13.68,-311.6
521468.7608,134.2,-62.647,1014.918,-1531.25,-4112.5,1811.25,-47.12,-22.8,-297.92
521468.8108,131.943,-61.488,1012.783,-1925.0,-4655.0,883.75,-36.48,-16.72,-313.12
521468.8608,132.553,-59.536,1014.918,-971.25,-3797.5,52.5,-45.6,-9.12,-293.36
521468.9108,131.272,-58.743,1012.356,-1890.0,-5136.25,673.75,-42.56,-30.4,-313.12
521468.9608,134.078,-66.124,1009.489,-1968.75,-5057.5,752.5,-59.28,-30.4,-302.48
521469.0108,138.958,-58.011,1015.711,525.0,-3211.25,-140.0,-45.6,-31.92,-322.24
521469.0608,123.525,-44.469,1011.746,-1478.75,-4007.5,-61.25,-42.56,-34.96,-311.6
521469.1108,124.196,-59.353,1013.637,-2222.5,-5250.0,1198.75,-48.64,-12.16,-288.8
521469.1608,134.139,-62.647,1013.698,-1408.75,-5066.25,2336.25,-48.64,-30.4,-311.6
521469.2108,131.821,-57.462,1011.319,-1688.75,-4375.0,866.25,-53.2,-38.0,-310.08
521469.2608,138.104,-66.856,1012.112,-2371.25,-5407.5,271.25,-47.12,-41.04,-317.68
521469.3108,130.479,-60.329,1014.186,-1251.25,-4637.5,1006.25,-45.6,-28.88,-317.68
521469.3609,128.954,-63.135,1010.343,-1496.25,-5766.25,962.5,-56.24,-34.96,-308.56
521469.4108,138.775,-63.074,1012.295,0.0,-5635.0,-210.0,-48.64,-28.88,-304.0
521469.4608,132.553,-51.057,1012.783,-446.25,-5188.75,-1330.0,-28.88,-13.68,-311.6
521469.5108,123.342,-53.07,1017.785,-1750.0,-6475.0,-752.5,-59.28,-22.8,-313.12
521469.5608,132.797,-60.817,1010.77,-1146.25,-7463.75,1478.75,-50.16,-18.24,-311.6
521469.6108,142.008,-52.948,1013.698,-1181.25,-8505.0,1365.0,-54.72,-34.96,-313.12
521469.6608,144.875,-63.867,1012.844,-2187.5,-7656.25,201.25,-54.72,-31.92,-302.48
521469.7108,146.583,-63.806,1008.208,-1050.0,-7638.75,367.5,-53.2,-19.76,-300.96
521469.7608,156.343,-57.584,1010.709,-2003.75,-7787.5,-183.75,-48.64,-21.28,-314.64
521469.8108,160.979,-67.222,1013.21,-1146.25,-7910.0,253.75,-54.72,-30.4,-304.0
521469.8608,168.116,-59.231,1010.465,875.0,-5792.5,-113.75,-68.4,-10.64,-297.92
521469.9108,151.646,-44.713,1005.036,-1977.5,-6518.75,-568.75,-45.6,-24.32,-300.96
521469.9608,158.112,-60.817,1007.781,-2161.25,-7017.5,358.75,-53.2,-33.44,-297.92
521470.0108,160.186,-61.854,1007.354,-1548.75,-7192.5,1531.25,-59.28,-25.84,-308.56
521470.0608,167.262,-56.974,1008.757,-1461.25,-6422.5,1277.5,-53.2,-25.84,-304.0
521470.1108,157.929,-58.194,1008.452,-1181.25,-7210.0,-61.25,-51.68,-21.28,-284.24
521470.1608,170.251,-50.569,1012.112,-2161.25,-8198.75,-1260.0,-48.64,-33.44,-310.08
521470.2108,168.299,-60.024,1010.404,-2476.25,-6851.25,-1636.25,-48.64,-27.36,-294.88
521470.2608,161.772,-59.658,1013.637,-52.5,-5591.25,-1242.5,-79.04,-28.88,-296.4
521470.3108,174.399,-33.733,1016.931,-2861.25,-9196.25,-2651.25,-51.68,-22.8,-293.36
521470.3608,162.565,-18.91,1000.156,-4567.5,-8015.0,-5696.25,-48.64,-16.72,-302.48
521470.4108,199.165,-110.105,1009.977,-5591.25,-12547.5,175.0,-56.24,-28.88,-290.32
521470.4608,176.9,-86.559,1005.158,-4725.0,-9905.0,-5005.0,-82.08,-41.04,-290.32
521470.5108,189.832,-108.153,1002.108,-1382.5,-13020.0,-2852.5,-53.2,-16.72,-297.92
521470.5608,218.624,-59.902,994.605,3220.0,-6317.5,-3412.5,-62.32,-30.4,-299.44
521470.6108,215.269,-48.678,996.923,-4200.0,-9126.25,-7035.0,-59.28,-30.4,-293.36
521470.6608,214.415,-77.653,998.997,-1268.75,-7980.0,-4515.0,-77.52,-19.76,-296.4
521470.7108,232.776,-61.976,1004.06,4340.0,-6238.75,-1058.75,-82.08,-31.92,-296.4
521470.7608,233.264,-49.166,988.078,3482.5,-5258.75,507.5,-83.6,-9.12,-300.96
521470.8109,232.959,-49.532,984.601,2100.0,-3806.25,2721.25,-69.92,-39.52,-299.44
521470.8608,207.095,-26.108,1005.341,218.75,1085.0,-2878.75,-65.36,-30.4,-287.28
521470.9108,178.486,-31.781,1009.55,-262.5,-980.0,-1776.25,-65.36,-34.96,-291.84
521470.9608,192.577,-23.18,1010.953,-1986.25,-3911.25,3561.25,-80.56,-33.44,-307.04
521471.0108,197.213,-25.864,1009.489,-2345.0,-3473.75,4996.25,-57.76,-33.44,-302.48
521471.0608,190.32,-36.722,1001.193,-4900.0,-4313.75,4576.25,-65.36,-45.6,-299.44
521471.1108,204.411,-57.95,1002.901,-3333.75,-2257.5,2415.0,-88.16,-28.88,-296.4
521471.1608,190.137,-55.083,1008.025,-1767.5,-1715.0,1785.0,-72.96,-39.52,-288.8
521471.2108,184.403,-36.539,1010.16,-1645.0,-2318.75,1163.75,-83.6,-15.2,-291.84
521471.2608,188.917,-40.382,1011.075,-2905.0,-2870.0,1933.75,-66.88,-33.44,-293.36
521471.3108,179.767,-49.654,1007.293,-2397.5,-4121.25,3456.25,-62.32,-22.8,-291.84
521471.3608,195.627,-55.144,1006.988,-2800.0,-4226.25,2957.5,-65.36,-36.48,-290.32
521471.4108,188.917,-60.207,1009.672,-2345.0,-4121.25,3045.0,-76.0,-27.36,-299.44
521471.4608,192.943,-57.95,1003.023,-2835.0,-4453.75,3622.5,-63.84,-28.88,-310.08
521471.5108,198.738,-72.163,1004.426,-2773.75,-4567.5,3570.0,-56.24,-38.0,-308.56
521471.5608,206.18,-75.945,1006.317,0.0,-2030.0,2318.75,-71.44,-30.4,-285.76
521471.6108,174.765,-55.876,1006.378,-1828.75,-2301.25,1067.5,-72.96,-21.28,-294.88
521471.6608,179.035,-60.451,1008.513,-2467.5,-3342.5,901.25,-56.24,-24.32,-290.32
521471.7108,183.061,-68.808,1006.073,-1741.25,-3771.25,2966.25,-66.88,-24.32,-276.64
521471.7608,178.669,-59.353,1005.951,-2231.25,-3578.75,2913.75,-62.32,-34.96,-297.92
521471.8108,179.889,-65.697,1006.378,-3298.75,-4672.5,1662.5,-66.88,-25.84,-296.4
521471.8608,180.926,-67.283,1008.574,-1828.75,-3640.0,988.75,-74.48,-25.84,-294.88
521471.9108,177.51,-73.383,1007.476,-1767.5,-4383.75,1496.25,-56.24,-27.36,-300.96
521471.9608,186.782,-68.015,1009.489,-428.75,-4978.75,420.0,-57.76,-27.36,-291.84
521472.0108,183.0,-54.9,1002.901,-1137.5,-3963.75,-717.5,-60.8,-36.48,-297.92
521472.0608,181.78,-56.425,1005.463,-1627.5,-4033.75,-1041.25,-54.72,-34.96,-302.48
521472.1108,181.719,-57.828,1008.025,-1338.75,-3780.0,332.5,-48.64,-25.84,-282.72
521472.161,179.279,-57.218,1009.977,-1951.25,-4200.0,945.0,-45.6,-27.36,-299.44
521472.2108,179.34,-61.366,1006.927,-1986.25,-4637.5,1408.75,-74.48,-22.8,-300.96
521472.2609,181.597,-61.061,1008.513,-936.25,-4646.25,1128.75,-72.96,-22.8,-291.84
521472.3108,181.292,-53.68,1005.036,-2607.5,-4917.5,78.75,-60.8,-24.32,-294.88
521472.3608,190.686,-75.091,1004.792,-2117.5,-4821.25,787.5,-60.8,-33.44,-285.76
521472.4108,185.684,-52.948,1006.195,148.75,-1872.5,630.0,-60.8,-25.84,-304.0
521472.4608,161.406,-50.081,1008.818,-1828.75,-3867.5,87.5,-56.24,-25.84,-299.44
521472.5108,182.024,-65.514,1009.733,-2756.25,-5022.5,1435.0,-71.44,-28.88,-296.4
521472.5608,179.035,-69.418,1007.232,-1295.0,-4926.25,2546.25,-50.16,-6.08,-291.84
521472.6108,179.645,-59.536,1005.097,-1890.0,-5145.0,1382.5,-48.64,-38.0,-290.32
521472.6608,185.501,-71.126,1009.001,-1741.25,-4777.5,516.25,-59.28,-33.44,-304.0
521472.7108,180.011,-62.891,1006.683,-1172.5,-4305.0,271.25,-62.32,-27.36,-304.0
521472.7608,182.207,-69.052,1001.559,-2380.0,-5153.75,498.75,-56.24,-21.28,-307.04
521472.8108,191.296,-68.869,1003.145,-315.0,-4270.0,-35.0,-51.68,-21.28,-293.36
521472.8608,188.795,-54.839,1001.803,-288.75,-3473.75,-673.75,-62.32,-19.76,-297.92
521472.9108,180.621,-55.388,1006.256,-2240.0,-3465.0,-612.5,-66.88,-31.92,-296.4
521472.9608,181.536,-63.44,1009.611,-2178.75,-2922.5,892.5,-53.2,-18.24,-288.8
521473.0108,174.216,-64.294,1008.696,-1715.0,-3806.25,2073.75,-44.08,-27.36,-308.56
521473.0608,179.035,-67.222,1007.598,-2021.25,-3316.25,1172.5,-53.2,-27.36,-300.96
521473.1108,176.961,-65.697,1006.317,-1277.5,-3368.75,936.25,-62.32,-44.08,-296.4
521473.1608,178.73,-61.0,1007.659,-2651.25,-4235.0,533.75,-57.76,-13.68,-288.8
521473.2108,176.29,-73.749,1007.537,-2310.0,-3526.25,1050.0,-57.76,-21.28,-300.96
521473.2608,180.438,-69.052,1012.234,717.5,-1960.0,962.5,-62.32,-22.8,-278.16
521473.3108,155.489,-53.009,1011.258,-2275.0,-3780.0,-218.75,-59.28,-24.32,-291.84
521473.3608,167.689,-64.416,1011.075,-2756.25,-4593.75,621.25,-51.68,-30.4,-296.4
521473.4108,173.179,-71.858,1006.134,-1452.5,-4838.75,2686.25,-53.2,-21.28,-284.24
521473.4608,167.994,-62.647,1004.975,-1916.25,-4095.0,1478.75,-65.36,-27.36,-310.08
521473.5108,170.922,-72.224,1010.709,-2590.0,-5145.0,560.0,-54.72,-9.12,-288.8
521473.5608,170.983,-69.418,1007.537,-1041.25,-3946.25,280.0,-57.76,-27.36,-300.96
521473.6108,167.567,-68.625,1008.513,-1645.0,-4961.25,726.25,-51.68,-24.32,-293.36
521473.6608,177.815,-71.675,1007.232,-533.75,-4768.75,428.75,-59.28,-15.2,-296.4
521473.7109,175.131,-54.778,1005.707,-708.75,-3867.5,-857.5,-53.2,-18.24,-302.48
521473.7608,170.678,-54.717,1008.635,-1960.0,-3718.75,-1058.75,-66.88,-34.96,-297.92
521473.8108,167.567,-66.551,1008.94,-1741.25,-3885.0,1522.5,-54.72,-30.4,-290.32
521473.8608,166.103,-66.795,1009.184,-1303.75,-4375.0,2301.25,-57.76,-34.96,-294.88
521473.9108,169.275,-71.004,1006.866,-1907.5,-4803.75,936.25,-72.96,-10.64,-290.32
521473.9608,168.665,-67.954,1008.94,-1093.75,-4777.5,166.25,-60.8,-21.28,-299.44
521474.0108,172.02,-62.83,1004.853,-2056.25,-4935.0,17.5,-57.76,-9.12,-297.92
521474.0608,172.752,-73.81,1007.415,-1898.75,-5381.25,848.75,-57.76,-13.68,-278.16
521474.1108,185.806,-77.165,1009.733,-245.0,-3998.75,420.0,-54.72,-15.2,-290.32
521474.1608,163.053,-48.19,1007.11,-1855.0,-3237.5,-1155.0,-74.48,-18.24,-296.4
521474.2108,166.652,-69.235,1008.635,-2231.25,-4550.0,1006.25,-66.88,-28.88,-299.44
521474.2608,172.02,-71.37,1008.269,-1741.25,-4620.0,2695.0,-63.84,-18.24,-288.8
521474.3108,173.911,-68.991,1005.036,-1128.75,-3543.75,1391.25,-53.2,-30.4,-294.88
521474.3608,170.251,-73.261,1008.208,-2135.0,-4602.5,402.5,-57.76,-25.84,-293.36
521474.4108,175.619,-71.858,1007.781,-945.0,-3543.75,52.5,-57.76,-16.72,-297.92
521474.4608,162.077,-72.285,1010.099,-1522.5,-3631.25,402.5,-42.56,-28.88,-299.44
521474.5108,163.297,-69.906,1007.781,-332.5,-4016.25,490.0,-59.28,-28.88,-293.36
521474.5608,169.214,-58.316,1008.757,-778.75,-3963.75,-691.25,-80.56,-18.24,-288.8
521474.6108,164.395,-57.95,1008.696,-1916.25,-4410.0,61.25,-56.24,-24.32,-307.04
521474.6608,162.565,-62.769,1008.391,-2047.5,-4200.0,1330.0,-56.24,-21.28,-302.48
521474.7108,157.624,-66.063,1013.027,-1653.75,-4821.25,1898.75,-57.76,-22.8,-305.52
521474.7608,166.225,-66.368,1010.77,-1933.75,-5110.0,1172.5,-54.72,-25.84,-305.52
521474.8108,163.663,-72.529,1010.099,-1242.5,-5083.75,682.5,-63.84,-38.0,-302.48
521474.8608,166.103,-63.684,1004.975,-2047.5,-5390.0,455.0,-57.76,-21.28,-296.4
521474.9108,174.765,-70.272,1005.89,-2283.75,-4742.5,647.5,-50.16,-25.84,-290.32
521474.9608,176.961,-78.263,1008.818,236.25,-3316.25,778.75,-51.68,-24.32,-297.92
521475.0108,160.857,-48.739,1005.28,-2520.0,-3736.25,-621.25,-54.72,-33.44,-297.92
521475.0608,158.905,-67.954,1011.197,-2808.75,-4191.25,743.75,-48.64,-10.64,-308.56
521475.1108,165.249,-72.468,1007.171,-1435.0,-5110.0,2931.25,-63.84,-7.6,-308.56
521475.1609,170.434,-72.041,1008.757,-1461.25,-4112.5,1793.75,-56.24,-30.4,-296.4
521475.2108,162.626,-72.468,1008.147,-2082.5,-4970.0,192.5,-57.76,-30.4,-294.88
521475.2608,171.166,-67.527,1009.428,-735.0,-4296.25,-245.0,-62.32,-15.2,-296.4
521475.3108,163.907,-67.039,1006.683,-1531.25,-4725.0,437.5,-62.32,-22.8,-294.88
521475.3608,168.726,-68.198,1009.184,-595.0,-4733.75,498.75,-62.32,-39.52,-299.44
521475.4108,169.885,-65.392,1007.537,-525.0,-4401.25,-306.25,-82.08,-3.04,-296.4
521475.4608,165.066,-55.571,1005.89,-1566.25,-3780.0,-761.25,-60.8,-28.88,-307.04
521475.5108,160.003,-63.989,1009.245,-1872.5,-4243.75,1233.75,-44.08,-31.92,-293.36
521475.5608,162.992,-66.368,1011.624,-1610.0,-4462.5,1776.25,-50.16,-19.76,-310.08
521475.6108,163.114,-65.392,1009.611,-1898.75,-4672.5,1102.5,-62.32,-22.8,-307.04
521475.6608,164.273,-69.479,1008.574,-1583.75,-4672.5,647.5,-57.76,-21.28,-290.32
521475.7108,163.053,-61.366,1006.134,-2135.0,-5075.0,411.25,-53.2,-25.84,-317.68
521475.7608,171.959,-77.287,1006.683,-2187.5,-5643.75,87.5,-59.28,-10.64,-291.84
521475.8108,179.523,-75.335,1008.757,-883.75,-4707.5,315.0,-72.96,-27.36,-311.6
521475.8608,161.833,-56.303,1011.685,-700.0,-2590.0,288.75,-48.64,-22.8,-302.48
521475.9108,160.308,-65.514,1006.256,-2485.0,-4935.0,831.25,-38.0,-24.32,-319.2
521475.9608,166.225,-66.185,1008.696,-2222.5,-5372.5,1802.5,-50.16,-33.44,-316.16
521476.0108,165.676,-68.137,1009.367,-1942.5,-4453.75,2117.5,-66.88,-18.24,-282.72
521476.0608,160.125,-66.429,1004.67,-2581.25,-4891.25,1618.75,-57.76,-24.32,-290.32
521476.1108,175.619,-76.006,1011.807,-2021.25,-4646.25,988.75,-63.84,1.52,-297.92
521476.1608,157.99,-71.675,1008.818,-1767.5,-4401.25,700.0,-65.36,-39.52,-294.88
521476.2108,163.846,-79.666,1010.526,-1382.5,-5451.25,988.75,-59.28,-7.6,-300.96
521476.2608,173.423,-69.296,1006.195,-8.75,-4891.25,-315.0,-66.88,-12.16,-293.36
521476.3108,171.044,-60.512,1006.561,-1242.5,-4733.75,-1321.25,-47.12,-16.72,-307.04
521476.3608,167.323,-65.148,1004.67,-1960.0,-4165.0,-647.5,-57.76,-19.76,-296.4
521476.4108,167.994,-68.625,1011.746,-1163.75,-4357.5,1373.75,-59.28,-27.36,-287.28
521476.4608,161.772,-64.843,1010.953,-1802.5,-4952.5,1076.25,-59.28,-19.76,-305.52
521476.5108,168.909,-74.664,1008.696,-1785.0,-4908.75,1015.0,-62.32,-22.8,-296.4
521476.5608,166.164,-66.917,1006.317,-1986.25,-5407.5,253.75,-57.76,-22.8,-294.88
521476.6109,174.704,-73.749,1002.962,-2695.0,-4978.75,-288.75,-68.4,-36.48,-291.84
521476.6608,184.464,-79.178,1014.308,411.25,-3946.25,201.25,-53.2,-18.24,-308.56
521476.7108,164.029,-54.168,1006.134,-253.75,-2712.5,70.0,-71.44,-9.12,-308.56
521476.7608,166.591,-61.183,1012.112,-3010.0,-5775.0,113.75,-38.0,-21.28,-299.44
521476.8108,167.201,-66.795,1010.099,-2091.25,-5346.25,1863.75,-59.28,-31.92,-294.88
521476.8608,175.131,-70.516,1005.097,-2030.0,-5267.5,1925.0,-56.24,-25.84,-296.4
521476.9108,173.362,-71.065,1007.049,-2590.0,-5407.5,595.0,-56.24,-13.68,-311.6
521476.9608,177.632,-78.751,1011.38,-1671.25,-4830.0,280.0,-54.72,-19.76,-310.08
521477.0108,166.408,-67.466,1008.818,-1373.75,-4926.25,201.25,-57.76,-24.32,-287.28
521477.0608,171.166,-77.714,1006.683,-1225.0,-5188.75,297.5,-65.36,-30.4,-296.4
521477.1108,175.741,-73.932,1004.365,472.5,-4252.5,218.75,-44.08,-25.84,-304.0
521477.1608,170.922,-57.95,1004.548,-927.5,-3648.75,-910.0,-62.32,-31.92,-282.72
521477.2108,166.286,-65.392,1007.049,-1925.0,-3605.0,306.25,-63.84,-18.24,-285.76
521477.2608,160.186,-65.758,1012.295,-1548.75,-3771.25,1312.5,-60.8,-18.24,-304.0
521477.3108,164.334,-65.331,1006.744,-2248.75,-4576.25,1067.5,-50.16,-22.8,-302.48
521477.3608,160.674,-73.322,1010.099,-1890.0,-4943.75,971.25,-60.8,-38.0,-284.24
521477.4108,169.153,-63.44,1007.476,-1338.75,-5180.0,402.5,-59.28,-30.4,-299.44
521477.4608,170.007,-72.346,1005.89,-2730.0,-5241.25,227.5,-48.64,-27.36,-302.48
521477.5108,180.56,-81.557,1009.794,-1487.5,-5302.5,735.0,-48.64,-18.24,-310.08
521477.5608,170.983,-56.181,1007.598,35.0,-3438.75,-297.5,-72.96,-27.36,-300.96
521477.6108,161.833,-54.778,1009.306,-2117.5,-4698.75,-183.75,-63.84,-25.84,-290.32
521477.6608,168.604,-70.15,1006.927,-1697.5,-5040.0,1697.5,-74.48,-6.08,-294.88
521477.7108,174.155,-71.004,1004.365,-1242.5,-4156.25,2231.25,-54.72,-21.28,-288.8
521477.7608,163.907,-67.1,1006.866,-2091.25,-4436.25,630.0,-45.6,-28.88,-296.4
521477.8108,176.778,-79.361,1010.282,-1260.0,-4488.75,-113.75,-57.76,-16.72,-311.6
521477.8608,167.445,-62.403,1006.378,-1916.25,-4602.5,-218.75,-66.88,0.0,-282.72
521477.9108,171.105,-76.372,1008.452,-1793.75,-5022.5,472.5,-59.28,-19.76,-296.4
521477.9608,172.691,-67.954,1004.06,61.25,-4532.5,560.0,-57.76,-25.84,-304.0
521478.0108,174.826,-57.279,1004.914,-1102.5,-3963.75,-805.0,-57.76,-22.8,-296.4
521478.061,167.628,-64.782,1010.099,-1986.25,-4847.5,-148.75,-47.12,-24.32,-299.44
521478.1108,172.935,-66.185,1007.903,-1540.0,-4532.5,1723.75,-72.96,-10.64,-291.84
521478.1608,169.763,-71.065,1009.367,-1671.25,-4663.75,1128.75,-50.16,-31.92,-297.92
521478.2108,169.702,-74.969,1008.025,-1207.5,-4698.75,315.0,-51.68,-31.92,-297.92
521478.2608,169.946,-65.026,1009.428,-743.75,-4261.25,-306.25,-47.12,-15.2,-308.56
521478.3108,171.715,-62.159,1007.232,-2607.5,-5171.25,-175.0,-66.88,-31.92,-300.96
521478.3608,179.645,-79.117,1007.476,-875.0,-4611.25,1435.0,-62.32,-41.04,-302.48
521478.4108,173.85,-62.891,1011.807,402.5,-3377.5,166.25,-38.0,0.0,-300.96
521478.4608,158.112,-60.085,1010.038,-2633.75,-4445.0,-350.0,-59.28,-28.88,-302.48
521478.5108,166.652,-70.76,1008.086,-1242.5,-5110.0,1548.75,-63.84,-24.32,-311.6
521478.5608,175.436,-64.66,1006.378,-1400.0,-5118.75,1645.0,-71.44,-28.88,-304.0
521478.6108,166.103,-66.063,1006.073,-2108.75,-5153.75,455.0,-63.84,-27.36,-313.12
521478.6608,175.131,-76.799,1007.171,-1662.5,-5670.0,306.25,-54.72,-21.28,-302.48
521478.7108,175.619,-61.0,1005.036,-1190.0,-4165.0,35.0,-60.8,-38.0,-293.36
521478.7608,172.874,-75.579,1006.256,-1128.75,-4576.25,437.5,-72.96,-25.84,-291.84
521478.8108,174.643,-65.941,1007.842,-105.0,-4217.5,568.75,-56.24,-18.24,-300.96
521478.8608,173.057,-55.449,1009.184,-1137.5,-3920.0,-288.75,-54.72,-4.56,-294.88
521478.9108,166.103,-60.878,1009.367,-1977.5,-4313.75,-411.25,-50.16,-19.76,-288.8
521478.9608,170.19,-64.721,1009.55,-1443.75,-4340.0,1006.25,-71.44,-16.72,-296.4
521479.0108,167.506,-66.978,1010.892,-1750.0,-4392.5,1636.25,-56.24,-21.28,-294.88
521479.0608,164.883,-71.919,1011.624,-1373.75,-4812.5,1128.75,-53.2,-13.68,-299.44
521479.1108,172.447,-63.745,1002.596,-1102.5,-5293.75,-52.5,-51.68,-36.48,-288.8
521479.1608,172.874,-61.61,1007.781,-35.0,-5223.75,-8.75,-57.76,-19.76,-290.32
521479.2108,175.436,-72.956,1007.232,-1540.0,-5258.75,490.0,-65.36,-9.12,-297.92
521479.2608,180.011,-62.098,1007.537,148.75,-3220.0,-113.75,-83.6,-12.16,-290.32
521479.3108,164.578,-55.083,1005.402,-1382.5,-4016.25,96.25,-51.68,-27.36,-305.52
521479.3608,165.981,-63.318,1008.086,-1942.5,-5451.25,787.5,-68.4,-25.84,-285.76
521479.4108,176.534,-63.989,1005.097,-1426.25,-4725.0,1540.0,-66.88,-24.32,-285.76
521479.4608,170.617,-58.926,1005.524,-1995.0,-4130.0,927.5,-51.68,-13.68,-293.36
521479.511,176.046,-72.834,1009.062,-2082.5,-5355.0,691.25,-45.6,-19.76,-296.4
521479.5608,176.412,-68.808,1010.831,-1172.5,-4383.75,980.0,-60.8,-22.8,-290.32
521479.6108,170.373,-68.991,1006.927,-1207.5,-5495.0,577.5,-47.12,-19.76,-293.36
521479.6608,179.767,-61.793,1005.585,-43.75,-5328.75,-472.5,-48.64,-7.6,-304.0
521479.7108,177.937,-54.656,1006.195,-988.75,-4497.5,-971.25,-54.72,-31.92,-291.84
521479.7608,175.497,-57.767,1005.524,-1741.25,-4506.25,-271.25,-57.76,-30.4,-317.68
521479.8108,170.983,-58.987,1007.415,-1881.25,-4786.25,1190.0,-83.6,-21.28,-300.96
521479.8608,177.754,-63.44,1008.269,-1767.5,-4882.5,1671.25,-60.8,-15.2,-293.36
521479.9108,174.46,-66.002,1007.72,-1960.0,-4856.25,1251.25,-60.8,-28.88,-297.92
521479.9608,176.351,-64.05,1007.476,-1750.0,-4698.75,603.75,-60.8,-28.88,-300.96
521480.0108,176.9,-69.662,1004.914,-2861.25,-5530.0,665.0,-62.32,-18.24,-307.04
521480.0608,191.662,-75.396,1009.062,-787.5,-5320.0,1093.75,-53.2,-9.12,-297.92
521480.1108,186.599,-59.719,1007.293,-96.25,-3167.5,245.0,-47.12,-25.84,-296.4
521480.1608,176.412,-59.475,1005.28,-2870.0,-4812.5,-131.25,-72.96,-19.76,-290.32
521480.2108,182.451,-71.126,1004.182,-2380.0,-4042.5,927.5,-68.4,-25.84,-299.44
521480.2608,180.194,-69.052,1007.232,-1286.25,-3316.25,1811.25,-39.52,-16.72,-304.0
521480.3108,166.225,-68.259,1009.733,-1802.5,-3508.75,1181.25,-57.76,-30.4,-290.32
521480.3608,175.558,-74.42,1014.247,-1198.75,-3885.0,140.0,-59.28,-25.84,-300.96
521480.4108,166.164,-64.477,1008.818,-1216.25,-4130.0,-577.5,-68.4,-21.28,-302.48
521480.4608,167.994,-70.028,1005.463,-1365.0,-5285.0,52.5,-56.24,-27.36,-287.28
521480.5108,179.706,-63.928,1007.171,-43.75,-4313.75,253.75,-57.76,-22.8,-287.28
521480.5608,171.959,-48.678,1004.365,-1426.25,-4226.25,-857.5,-60.8,-22.8,-278.16
521480.6108,173.911,-53.192,1007.232,-2782.5,-4348.75,-603.75,-79.04,-18.24,-302.48
521480.6608,170.312,-65.392,1010.343,-1898.75,-3648.75,1863.75,-48.64,-21.28,-310.08
521480.7108,170.556,-63.745,1005.707,-2065.0,-4567.5,1741.25,-65.36,-38.0,-300.96
521480.7608,172.325,-72.956,1008.574,-1995.0,-4418.75,1435.0,-74.48,-28.88,-305.52
521480.8108,171.288,-59.597,1006.622,-1575.0,-4243.75,857.5,-54.72,-9.12,-288.8
521480.8608,172.569,-63.135,1007.049,-2791.25,-4786.25,105.0,-53.2,-22.8,-311.6
521480.9108,182.817,-75.335,1009.855,-1225.0,-4051.25,997.5,-53.2,-13.68,-307.04
521480.9608,166.042,-57.157,1008.574,-1225.0,-2721.25,551.25,-56.24,-25.84,-311.6
521481.0108,154.269,-56.852,1008.391,-2590.0,-4331.25,271.25,-71.44,-10.64,-307.04
521481.0609,168.787,-72.834,1006.073,-2563.75,-5250.0,1872.5,-60.8,-3.04,-296.4
521481.1108,172.63,-73.383,1009.489,-1461.25,-4803.75,2353.75,-69.92,-22.8,-297.92
521481.1608,169.58,-67.161,1003.694,-2275.0,-4838.75,682.5,-69.92,-22.8,-304.0
521481.2108,174.399,-76.006,1011.868,-1435.0,-5232.5,253.75,-51.68,-21.28,-296.4
521481.2608,172.874,-64.294,1007.537,-1146.25,-4672.5,367.5,-47.12,-19.76,-294.88
521481.3108,175.314,-71.919,1005.951,-1540.0,-5031.25,420.0,-60.8,-18.24,-302.48
521481.3608,180.072,-67.222,1006.927,-385.0,-4130.0,-8.75,-47.12,-18.24,-304.0
521481.4108,173.179,-58.438,1006.134,-945.0,-3587.5,-708.75,-45.6,-15.2,-310.08
521481.4608,168.97,-61.427,1008.757,-2108.75,-3867.5,166.25,-69.92,-25.84,-294.88
521481.5108,169.031,-67.893,1008.452,-1548.75,-3876.25,1680.0,-62.32,-24.32,-299.44
521481.5608,168.97,-66.795,1008.391,-1645.0,-4173.75,1758.75,-47.12,-15.2,-310.08
521481.6108,167.14,-72.468,1009.916,-1723.75,-4243.75,673.75,-47.12,-34.96,-288.8
521481.6608,167.079,-67.832,1007.903,-1303.75,-4497.5,341.25,-59.28,-27.36,-293.36
521481.7108,173.362,-68.869,1003.755,-2292.5,-4882.5,498.75,-47.12,-22.8,-297.92
521481.7608,175.375,-80.825,1009.367,-1347.5,-4462.5,831.25,-54.72,-15.2,-311.6
521481.8108,171.959,-57.035,1007.903,-8.75,-2852.5,-577.5,-63.84,-24.32,-304.0
521481.8608,160.674,-61.122,1011.502,-2948.75,-4383.75,-376.25,-59.28,-28.88,-307.04
521481.9108,164.822,-69.418,1007.537,-2047.5,-4900.0,1898.75,-54.72,-16.72,-282.72
521481.9608,172.325,-71.431,1007.232,-1452.5,-4348.75,2458.75,-51.68,-21.28,-300.96
521482.0108,165.737,-66.185,1009.489,-1627.5,-3981.25,673.75,-53.2,-27.36,-314.64
521482.0608,175.131,-78.019,1011.014,-1837.5,-4488.75,8.75,-54.72,-15.2,-290.32
521482.1108,162.26,-65.27,1010.404,-1233.75,-3727.5,70.0,-62.32,-22.8,-297.92
521482.1608,160.674,-73.627,1006.561,-1330.0,-4471.25,437.5,-48.64,-22.8,-311.6
521482.2108,169.763,-67.405,1008.086,-192.5,-4690.0,113.75,-62.32,-13.68,-281.2
521482.2608,164.639,-57.096,1008.635,-1688.75,-4103.75,-323.75,-71.44,-36.48,-297.92
521482.3108,163.297,-60.573,1009.245,-2581.25,-4410.0,507.5,-42.56,-21.28,-307.04
521482.3608,163.053,-70.577,1007.598,-1776.25,-4060.0,2336.25,-54.72,-28.88,-300.96
521482.4108,164.395,-71.553,1008.757,-1925.0,-4375.0,2275.0,-59.28,-9.12,-311.6
521482.4608,164.761,-74.237,1007.903,-1662.5,-4375.0,752.5,-72.96,-15.2,-304.0
521482.5109,166.591,-66.49,1007.11,-1688.75,-4768.75,105.0,-50.16,-12.16,-299.44
521482.5608,166.103,-72.285,1010.343,-2353.75,-5031.25,332.5,-50.16,-38.0,-293.36
521482.6108,175.985,-79.3,1008.208,-752.5,-4383.75,1058.75,-72.96,-30.4,-300.96
521482.6608,169.885,-64.904,1009.855,140.0,-3097.5,-175.0,-63.84,-22.8,-302.48
521482.7108,154.025,-64.05,1008.818,-3150.0,-4865.0,122.5,-50.16,-30.4,-310.08
521482.7608,165.798,-75.274,1005.28,-1627.5,-5442.5,2310.0,-63.84,-31.92,-302.48
521482.8108,170.312,-71.858,1007.964,-1531.25,-4147.5,1942.5,-53.2,-28.88,-288.8
521482.8608,158.722,-68.503,1007.781,-1960.0,-4698.75,393.75,-45.6,-22.8,-300.96
521482.9108,177.388,-76.372,1008.574,-1067.5,-4751.25,192.5,-59.28,-12.16,-299.44
521482.9608,164.029,-68.076,1009.55,-1225.0,-4182.5,-78.75,-57.76,-27.36,-305.52
521483.0108,168.177,-74.298,1010.709,-1041.25,-4733.75,201.25,-45.6,-15.2,-310.08
521483.0608,170.739,-66.856,1006.5,-236.25,-4200.0,166.25,-59.28,-18.24,-287.28
521483.1108,165.31,-59.109,1008.025,-1548.75,-3902.5,-411.25,-44.08,-18.24,-307.04
521483.1608,161.955,-64.233,1006.683,-2143.75,-4383.75,1295.0,-60.8,-28.88,-299.44
521483.2108,167.75,-72.407,1008.574,-2091.25,-4112.5,2003.75,-53.2,-16.72,-299.44
521483.2608,164.151,-71.431,1006.317,-1837.5,-4313.75,1356.25,-53.2,-31.92,-308.56
521483.3108,159.942,-73.993,1008.94,-1872.5,-4375.0,761.25,-50.16,-30.4,-304.0
521483.3608,162.26,-69.235,1009.062,-1321.25,-4803.75,183.75,-62.32,-25.84,-296.4
521483.4108,169.214,-73.444,1008.33,-2135.0,-4830.0,787.5,-54.72,-16.72,-304.0
521483.4608,170.007,-78.324,1009.306,-1277.5,-4532.5,1032.5,-48.64,-7.6,-293.36
521483.5108,165.31,-59.292,1008.086,-218.75,-2563.75,-691.25,-44.08,-9.12,-300.96
521483.5608,153.354,-68.93,1011.197,-2940.0,-4733.75,43.75,-69.92,-25.84,-296.4
521483.6108,162.077,-73.81,1010.099,-1793.75,-4803.75,2091.25,-65.36,-15.2,-310.08
521483.6608,165.066,-72.407,1008.94,-1426.25,-4095.0,1671.25,-56.24,-10.64,-317.68
521483.7108,152.805,-69.479,1009.428,-1837.5,-4235.0,17.5,-56.24,-15.2,-293.36
521483.7608,167.262,-78.263,1010.465,-1373.75,-4777.5,210.0,-68.4,-16.72,-296.4
521483.8108,157.563,-63.867,1009.611,-1321.25,-4305.0,358.75,-48.64,-19.76,-297.92
521483.8608,162.504,-73.749,1006.439,-1785.0,-4917.5,542.5,-45.6,-31.92,-305.52
521483.9108,164.578,-70.272,1008.452,-297.5,-4392.5,315.0,-51.68,-31.92,-285.76
521483.961,162.809,-61.244,1006.317,-1085.0,-3858.75,-297.5,-45.6,-19.76,-302.48
521484.0108,160.491,-63.44,1008.208,-2056.25,-3893.75,341.25,-62.32,-28.88,-296.4
521484.0608,159.82,-71.98,1010.77,-1688.75,-4252.5,1697.5,-56.24,-30.4,-299.44
521484.1108,160.491,-68.076,1009.245,-1653.75,-4585.0,1505.0,-56.24,-28.88,-297.92
521484.1608,160.552,-76.982,1010.038,-1697.5,-4707.5,1093.75,-51.68,-10.64,-297.92
521484.2108,160.308,-64.355,1008.025,-1496.25,-4576.25,245.0,-60.8,-15.2,-291.84
521484.2608,162.626,-67.832,1009.001,-2476.25,-4760.0,227.5,-57.76,-21.28,-293.36
521484.3108,170.617,-79.605,1010.221,-927.5,-4576.25,1172.5,-53.2,-16.72,-305.52
521484.3608,171.044,-66.002,1009.123,280.0,-3010.0,323.75,-42.56,-4.56,-302.48
521484.4108,149.023,-60.634,1009.367,-2817.5,-4436.25,315.0,-47.12,-22.8,-304.0
521484.4608,159.332,-72.468,1006.805,-2248.75,-4777.5,1767.5,-69.92,-18.24,-304.0
521484.5108,163.724,-72.285,1007.049,-1907.5,-4243.75,2415.0,-57.76,-18.24,-293.36
521484.5608,153.232,-70.333,1009.733,-2380.0,-4576.25,1470.0,-53.2,-13.68,-281.2
521484.6108,164.029,-80.398,1010.465,-2625.0,-5477.5,883.75,-48.64,-16.72,-310.08
521484.6608,160.918,-73.688,1008.025,-1540.0,-3710.0,542.5,-60.8,-21.28,-302.48
521484.7108,156.953,-79.788,1008.025,-1373.75,-5302.5,656.25,-65.36,-16.72,-307.04
521484.7608,166.652,-73.566,1008.452,-245.0,-4935.0,358.75,-57.76,-9.12,-304.0
521484.8108,159.881,-63.379,1007.354,-1277.5,-4033.75,-498.75,-48.64,-30.4,-294.88
521484.8608,155.733,-64.294,1009.428,-1960.0,-4401.25,-253.75,-62.32,-24.32,-294.88
521484.9108,159.088,-72.102,1011.136,-2275.0,-4812.5,1653.75,-47.12,-21.28,-291.84
521484.9608,161.406,-76.677,1007.781,-1785.0,-4812.5,1688.75,-51.68,-10.64,-307.04
521485.0108,161.162,-76.738,1010.282,-1680.0,-4768.75,1190.0,-62.32,-34.96,-300.96
521485.0608,165.371,-70.211,1007.415,-1872.5,-4847.5,490.0,-57.76,-19.76,-313.12
521485.1108,162.016,-80.276,1006.195,-1925.0,-4777.5,630.0,-57.76,-22.8,-307.04
521485.1608,169.031,-83.082,1008.635,-1426.25,-4847.5,612.5,-42.56,-30.4,-308.56
521485.2108,166.53,-65.514,1007.11,-315.0,-2537.5,-420.0,-65.36,-19.76,-300.96
521485.2608,145.607,-64.66,1008.208,-1575.0,-4235.0,26.25,-53.2,-10.64,-293.36
521485.3108,160.308,-73.627,1008.94,-1890.0,-4392.5,1006.25,-48.64,-12.16,-297.92
521485.3608,161.284,-76.433,1009.611,-1225.0,-4392.5,1618.75,-51.68,-18.24,-285.76
521485.4108,152.866,-67.832,1007.659,-1741.25,-3963.75,621.25,-59.28,-25.84,-299.44
521485.4608,160.003,-81.801,1012.539,-1653.75,-6055.0,175.0,-72.96,-21.28,-310.08
521485.5109,162.443,-73.139,1012.905,-778.75,-5346.25,402.5,-34.96,-3.04,-302.48
521485.5608,155.55,-74.42,1008.391,-1452.5,-7586.25,752.5,-53.2,-12.16,-291.84
521485.6108,173.667,-71.431,1005.341,-131.25,-5853.75,-166.25,-65.36,-21.28,-294.88
521485.6608,168.848,-60.817,1009.855,-875.0,-4707.5,-1330.0,-57.76,-6.08,-299.44
521485.7108,162.87,-63.44,1009.367,-2240.0,-5626.25,-953.75,-45.6,-19.76,-297.92
521485.7608,171.349,-74.237,1006.683,-1627.5,-5180.0,1303.75,-56.24,-28.88,-297.92
521485.8108,168.604,-75.091,1003.084,-1977.5,-5722.5,1181.25,-60.8,-19.76,-302.48
521485.8608,176.839,-83.631,1006.256,-1723.75,-4471.25,-245.0,-45.6,-15.2,-300.96
521485.9108,176.717,-81.496,1006.439,-691.25,-3876.25,-218.75,-54.72,-12.16,-294.88
521485.9608,162.077,-66.368,1006.256,-1793.75,-4943.75,-813.75,-66.88,-21.28,-297.92
521486.0108,172.63,-80.703,1010.77,-1312.5,-5005.0,-78.75,-59.28,-19.76,-300.96
521486.0608,173.24,-74.603,1008.025,1058.75,-3543.75,-498.75,-50.16,-6.08,-304.0
521486.1108,162.077,-56.486,1005.89,-1216.25,-3561.25,-1163.75,-60.8,-16.72,-296.4
521486.1608,161.467,-64.111,1007.903,-1977.5,-5477.5,-175.0,-62.32,-38.0,-293.36
521486.2108,164.334,-74.542,1008.879,-1242.5,-5223.75,1610.0,-57.76,-16.72,-307.04
521486.2608,172.386,-65.392,1003.999,-1356.25,-4348.75,1032.5,-63.84,-13.68,-282.72
521486.3108,165.371,-71.309,1011.014,-2450.0,-5460.0,-157.5,-62.32,-22.8,-307.04
521486.3608,175.375,-69.54,1005.524,-1111.25,-4882.5,-673.75,-57.76,-15.2,-310.08
521486.4108,174.765,-73.993,1006.134,-1303.75,-4935.0,-236.25,-44.08,-15.2,-307.04
521486.4608,175.497,-73.322,1005.341,-227.5,-4760.0,-26.25,-62.32,-33.44,-288.8
521486.5108,175.985,-60.39,1005.585,-595.0,-3867.5,-936.25,-71.44,-25.84,-296.4
521486.5608,168.543,-57.157,1007.232,-1618.75,-3867.5,-1190.0,-57.76,-19.76,-304.0
521486.6108,169.153,-71.126,1008.513,-1837.5,-3727.5,892.5,-62.32,-22.8,-297.92
521486.6608,172.142,-67.832,1009.489,-1426.25,-4226.25,1487.5,-57.76,-34.96,-300.96
521486.7108,169.519,-72.529,1011.563,-1706.25,-4305.0,813.75,-53.2,-21.28,-304.0
521486.7608,168.299,-70.15,1009.245,-997.5,-4567.5,210.0,-51.68,-30.4,-302.48
521486.8108,169.275,-60.817,1006.012,-1601.25,-4900.0,-157.5,-62.32,-22.8,-299.44
521486.8608,169.031,-71.492,1005.524,-1916.25,-4742.5,787.5,-56.24,-18.24,-305.52
521486.9108,180.072,-71.614,1011.136,603.75,-3211.25,638.75,-45.6,-19.76,-304.0
521486.9609,162.809,-49.349,1007.354,-927.5,-2878.75,61.25,-56.24,-16.72,-305.52
521487.0108,161.955,-66.612,1007.476,-2467.5,-4943.75,1146.25,-69.92,-31.92,-294.88
521487.0608,170.861,-72.407,1009.916,-1452.5,-4602.5,2590.0,-42.56,-19.76,-311.6
521487.1108,170.373,-69.845,1009.428,-1618.75,-3920.0,1741.25,-57.76,-15.2,-316.16
521487.1608,170.861,-73.322,1008.757,-2485.0,-5101.25,997.5,-54.72,-27.36,-300.96
521487.2108,172.752,-76.067,1010.221,-1198.75,-4795.0,586.25,-51.68,-31.92,-293.36
521487.2608,165.981,-69.296,1004.792,-1723.75,-4497.5,603.75,-56.24,-7.6,-310.08
521487.3108,170.312,-70.516,1012.234,-367.5,-5127.5,183.75,-51.68,-13.68,-300.96
521487.3608,173.301,-60.39,1005.768,-367.5,-4541.25,-26.25,-59.28,-30.4,-285.76
521487.4108,170.739,-61.122,1008.269,-2301.25,-4628.75,455.0,-65.36,-27.36,-305.52
521487.4608,169.58,-67.649,1008.025,-2187.5,-4480.0,1417.5,-53.2,-16.72,-281.2
521487.5108,172.264,-70.516,1007.354,-2056.25,-4716.25,2108.75,-62.32,-12.16,-299.44
521487.5608,172.813,-73.444,1007.415,-1636.25,-4016.25,691.25,-57.76,-21.28,-305.52
521487.6108,170.739,-71.431,1007.11,-1382.5,-3780.0,166.25,-48.64,-19.76,-293.36
521487.6608,166.225,-66.307,1007.415,-1811.25,-4576.25,70.0,-54.72,-9.12,-304.0
521487.7108,168.421,-74.054,1003.938,-1610.0,-4383.75,148.75,-68.4,-21.28,-290.32
521487.7608,180.804,-77.348,1008.94,-61.25,-3902.5,-70.0,-56.24,-15.2,-302.48
521487.8108,152.439,-57.401,1008.696,-1225.0,-3508.75,-638.75,-42.56,-18.24,-304.0
521487.8608,160.918,-62.708,1009.733,-2135.0,-4795.0,-8.75,-47.12,-21.28,-290.32
521487.9108,164.639,-67.893,1008.757,-1522.5,-4558.75,1242.5,-65.36,-13.68,-302.48
521487.9608,163.297,-67.039,1006.378,-1767.5,-4462.5,1575.0,-62.32,-10.64,-300.96
521488.0108,166.286,-69.113,1008.757,-2240.0,-5608.75,953.75,-51.68,-12.16,-297.92
521488.0608,174.643,-69.601,1009.123,-1050.0,-4077.5,175.0,-53.2,-28.88,-305.52
521488.1108,164.151,-70.333,1007.049,-1732.5,-4558.75,472.5,-65.36,-19.76,-300.96
521488.1608,176.168,-75.091,1009.489,-411.25,-5057.5,437.5,-68.4,-19.76,-294.88
521488.2108,169.092,-54.412,1002.596,-428.75,-4576.25,-630.0,-47.12,-25.84,-290.32
521488.2608,168.421,-54.656,1005.707,-2196.25,-4725.0,-822.5,-63.84,-25.84,-279.68
521488.3108,170.129,-67.649,1009.733,-1715.0,-4733.75,1688.75,-59.28,-19.76,-293.36
521488.3608,166.53,-65.941,1011.319,-1163.75,-4707.5,2415.0,-66.88,0.0,-290.32
521488.411,169.824,-67.344,1007.354,-2738.75,-5416.25,1076.25,-63.84,-28.88,-311.6
521488.4608,167.689,-71.736,1011.624,-1321.25,-4786.25,1023.75,-60.8,-28.88,-293.36
521488.5109,169.58,-59.292,1005.402,-2493.75,-5005.0,498.75,-57.76,-19.76,-302.48
521488.5608,173.606,-78.507,1004.182,-2537.5,-4856.25,1023.75,-59.28,-27.36,-297.92
521488.6108,178.059,-71.919,1009.916,96.25,-2747.5,813.75,-68.4,-13.68,-302.48
521488.6608,162.504,-59.353,1004.914,-1303.75,-2922.5,8.75,-53.2,-9.12,-302.48
521488.7108,161.955,-69.052,1009.733,-2231.25,-4366.25,-26.25,-56.24,-21.28,-294.88
521488.7608,165.676,-70.943,1010.099,-1776.25,-4585.0,1172.5,-60.8,-15.2,-287.28
521488.8108,168.665,-72.102,1008.269,-1505.0,-4130.0,1478.75,-57.76,-19.76,-294.88
521488.8608,165.92,-75.518,1009.367,-2441.25,-4917.5,1058.75,-63.84,-16.72,-297.92
521488.9108,174.46,-77.897,1011.99,-1137.5,-4663.75,350.0,-59.28,-25.84,-285.76
521488.9608,164.639,-70.272,1008.208,-2030.0,-4838.75,-52.5,-59.28,-33.44,-305.52
521489.0108,167.872,-77.226,1008.513,-1198.75,-5013.75,122.5,-59.28,-27.36,-290.32
521489.0608,172.447,-66.49,1007.415,61.25,-4243.75,8.75,-54.72,-28.88,-297.92
521489.1108,167.323,-56.73,1006.195,-1986.25,-4418.75,-420.0,-69.92,-9.12,-313.12
521489.1608,169.58,-67.161,1007.903,-2021.25,-4042.5,446.25,-56.24,-19.76,-291.84
521489.2108,161.162,-66.429,1010.038,-1671.25,-4611.25,1811.25,-50.16,-13.68,-297.92
521489.2608,167.628,-74.054,1008.269,-2152.5,-4602.5,962.5,-59.28,-28.88,-305.52
521489.3108,167.567,-75.396,1011.563,-1260.0,-4296.25,1050.0,-48.64,-6.08,-305.52
521489.3608,167.506,-65.941,1004.731,-2380.0,-5092.5,367.5,-54.72,-15.2,-308.56
521489.4108,169.458,-77.958,1006.988,-2073.75,-4392.5,306.25,-65.36,-19.76,-299.44
521489.4608,178.73,-79.361,1008.147,70.0,-3850.0,61.25,-53.2,-18.24,-293.36
521489.5108,155.245,-58.804,1008.086,-1960.0,-4068.75,-1093.75,-44.08,-15.2,-300.96
521489.5608,164.761,-70.516,1006.866,-2458.75,-5215.0,192.5,-59.28,-25.84,-308.56
521489.6108,172.63,-71.492,1002.657,-1513.75,-4576.25,2248.75,-54.72,-18.24,-294.88
521489.6608,172.813,-70.638,1008.025,-1697.5,-3937.5,1338.75,-60.8,-13.68,-304.0
521489.7108,160.003,-66.612,1008.086,-2371.25,-4401.25,726.25,-69.92,-10.64,-297.92
521489.7608,173.362,-74.969,1010.404,-1268.75,-4523.75,437.5,-47.12,3.04,-294.88
521489.8108,166.957,-68.686,1007.476,-1408.75,-4331.25,568.75,-59.28,-22.8,-293.36
521489.8608,167.872,-78.385,1006.561,-971.25,-4865.0,586.25,-62.32,-12.16,-291.84
521489.9108,172.996,-67.893,1006.988,-420.0,-4095.0,-525.0,-48.64,-13.68,-311.6
521489.9609,165.798,-58.926,1009.001,-1872.5,-3920.0,-875.0,-57.76,-38.0,-297.92
521490.0108,161.101,-70.821,1010.953,-2082.5,-4270.0,1286.25,-51.68,-13.68,-296.4
521490.0608,165.798,-71.492,1007.354,-1610.0,-4585.0,2362.5,-45.6,-27.36,-297.92
521490.1108,164.151,-76.067,1012.173,-2117.5,-5136.25,1093.75,-51.68,-22.8,-296.4
521490.1608,167.567,-74.481,1007.903,-1286.25,-4515.0,70.0,-66.88,-22.8,-293.36
521490.2108,166.103,-66.978,1007.476,-1898.75,-4961.25,26.25,-54.72,-10.64,-297.92
521490.2608,172.874,-78.263,1003.999,-1723.75,-4593.75,848.75,-50.16,-24.32,-279.68
521490.3108,177.266,-82.228,1006.561,-498.75,-4033.75,831.25,-63.84,-30.4,-294.88
521490.3608,159.088,-55.388,1011.197,-1268.75,-3053.75,-901.25,-53.2,-16.72,-320.72
521490.4108,159.088,-69.479,1006.439,-2590.0,-4663.75,638.75,-50.16,-27.36,-294.88
521490.4608,168.665,-73.566,1006.561,-1741.25,-4436.25,2406.25,-38.0,-21.28,-296.4
521490.5108,163.053,-69.479,1010.953,-1636.25,-4077.5,1802.5,-53.2,-13.68,-284.24
521490.5608,159.576,-66.978,1008.269,-2922.5,-4795.0,717.5,-66.88,-28.88,-305.52
521490.6108,172.203,-80.947,1010.099,-848.75,-4086.25,866.25,-54.72,-21.28,-285.76
521490.6608,155.977,-68.869,1008.94,-2406.25,-4532.5,857.5,-59.28,-24.32,-296.4
521490.7108,165.676,-84.546,1011.807,-1785.0,-5092.5,866.25,-68.4,-18.24,-299.44
521490.7608,166.835,-72.224,1006.744,-61.25,-4550.0,-201.25,-59.28,3.04,-281.2
521490.8108,160.43,-63.989,1006.256,-2266.25,-4488.75,-717.5,-54.72,-13.68,-300.96
521490.8608,164.761,-76.311,1007.842,-1671.25,-4375.0,630.0,-51.68,-28.88,-293.36
521490.9108,160.064,-72.163,1010.343,-1338.75,-4077.5,1400.0,-60.8,-6.08,-304.0
521490.9608,160.491,-71.187,1009.55,-2030.0,-5066.25,1050.0,-62.32,-16.72,-305.52
521491.0108,160.186,-78.873,1007.049,-945.0,-4733.75,630.0,-62.32,-19.76,-296.4
521491.0608,167.811,-69.601,1005.646,-2318.75,-5127.5,-70.0,-63.84,-13.68,-297.92
521491.1108,166.957,-78.751,1005.89,-2143.75,-4733.75,297.5,-66.88,-18.24,-288.8
521491.1608,177.51,-71.919,1010.587,551.25,-2791.25,210.0,-62.32,-18.24,-302.48
521491.2108,153.598,-56.12,1006.622,-1268.75,-3447.5,26.25,-51.68,-25.84,-290.32
521491.2608,162.748,-69.723,1009.916,-2266.25,-5101.25,726.25,-59.28,-27.36,-294.88
521491.3108,164.334,-70.882,1008.635,-1662.5,-4480.0,2380.0,-66.88,-21.28,-293.36
521491.3608,161.711,-67.527,1006.988,-2240.0,-4331.25,1811.25,-56.24,-16.72,-278.16
521491.411,166.347,-76.494,1009.062,-3132.5,-5416.25,2012.5,-56.24,-24.32,-293.36
521491.4608,164.334,-75.213,1010.221,-1592.5,-3718.75,2170.0,-57.76,-15.2,-307.04
521491.5109,158.6,-76.006,1005.707,-2231.25,-4698.75,1750.0,-50.16,-6.08,-296.4
521491.5608,165.859,-87.657,1009.672,-1006.25,-4593.75,1128.75,-44.08,-7.6,-297.92
521491.6108,164.334,-72.102,1006.622,-358.75,-3928.75,358.75,-60.8,-27.36,-305.52
521491.6608,162.687,-65.331,1007.903,-2590.0,-3998.75,26.25,-65.36,-16.72,-302.48
521491.7108,159.942,-83.692,1010.77,-1697.5,-4305.0,2345.0,-60.8,-15.2,-293.36
521491.7608,159.576,-75.457,1009.245,-1697.5,-4760.0,2178.75,-54.72,-12.16,-284.24
521491.8108,162.565,-83.509,1007.72,-2765.0,-4698.75,1277.5,-51.68,-19.76,-311.6
521491.8608,165.066,-87.047,1009.062,-1277.5,-4812.5,1461.25,-53.2,-31.92,-305.52
521491.9108,167.811,-83.021,1006.195,-1951.25,-4873.75,481.25,-48.64,-16.72,-305.52
521491.9608,174.033,-92.781,1008.94,-857.5,-5057.5,586.25,-63.84,-21.28,-311.6
521492.0108,176.412,-78.934,1008.879,936.25,-2555.0,-787.5,-54.72,-15.2,-290.32
521492.0608,149.572,-65.941,1007.598,-1968.75,-3902.5,-1662.5,-38.0,-15.2,-299.44
521492.1108,158.478,-82.045,1009.306,-2170.0,-4427.5,700.0,-54.72,-24.32,-308.56
521492.1608,163.846,-79.971,1006.5,-945.0,-4033.75,2126.25,-69.92,-19.76,-300.96
521492.2108,150.67,-74.359,1008.818,-2065.0,-4217.5,612.5,-54.72,-15.2,-304.0
521492.2608,160.918,-86.193,1009.55,-2021.25,-4593.75,-428.75,-53.2,-10.64,-297.92
521492.3108,153.598,-74.481,1012.417,-402.5,-4348.75,-813.75,-63.84,-12.16,-296.4
521492.3608,152.256,-78.69,1005.829,-1286.25,-5381.25,-1111.25,-54.72,-18.24,-299.44
521492.4108,168.97,-81.313,1009.367,192.5,-5740.0,-323.75,-36.48,-24.32,-299.44
521492.4608,158.478,-59.902,1006.927,-367.5,-5057.5,-1426.25,-48.64,-27.36,-307.04
521492.5108,163.663,-62.708,1006.256,-2143.75,-4760.0,-1855.0,-59.28,-27.36,-302.48
521492.5608,157.319,-74.542,1011.746,-1233.75,-4471.25,638.75,-69.92,-13.68,-288.8
521492.6108,162.016,-74.664,1011.075,-1417.5,-5101.25,805.0,-45.6,-18.24,-300.96
521492.6608,163.48,-77.165,1009.184,-1601.25,-4900.0,420.0,-54.72,-19.76,-296.4
521492.7108,160.125,-72.407,1010.16,-831.25,-5250.0,-105.0,-53.2,-27.36,-284.24
521492.7608,166.957,-67.039,1005.402,-1977.5,-5250.0,-805.0,-54.72,-10.64,-300.96
521492.8108,164.822,-83.021,1006.866,-2012.5,-5110.0,420.0,-56.24,-6.08,-287.28
521492.8608,168.726,-66.124,1011.258,542.5,-3316.25,-262.5,-56.24,-25.84,-316.16
521492.9108,156.099,-57.645,1006.5,-1767.5,-4235.0,-621.25,-82.08,-6.08,-302.48
521492.9609,154.452,-73.993,1010.404,-2257.5,-5565.0,840.0,-60.8,-16.72,-304.0
521493.0108,168.238,-75.03,1006.195,-1242.5,-4943.75,1627.5,-77.52,-15.2,-284.24
521493.0608,164.029,-70.516,1005.707,-1513.75,-4121.25,358.75,-53.2,-18.24,-299.44
521493.1108,163.114,-81.008,1008.818,-1837.5,-5556.25,166.25,-65.36,-12.16,-304.0
521493.1608,173.301,-71.431,1008.94,-402.5,-4733.75,166.25,-71.44,-13.68,-308.56
521493.2108,157.685,-72.102,1008.025,-1601.25,-4873.75,148.75,-57.76,-16.72,-294.88
521493.2608,169.519,-74.054,1007.415,-236.25,-5311.25,-87.5,-68.4,-27.36,-281.2
521493.3108,169.763,-60.817,1006.5,-813.75,-4436.25,-1015.0,-68.4,-18.24,-300.96
521493.3608,162.87,-65.148,1007.537,-1802.5,-4576.25,-201.25,-50.16,-19.76,-290.32
521493.4108,164.639,-66.917,1007.293,-1802.5,-4725.0,1583.75,-54.72,-13.68,-293.36
521493.4608,164.761,-70.089,1006.317,-1583.75,-4313.75,1855.0,-56.24,-31.92,-296.4
521493.5108,161.345,-77.348,1009.916,-1872.5,-5005.0,393.75,-65.36,-10.64,-297.92
521493.5608,168.726,-70.333,1009.184,-1373.75,-5180.0,35.0,-56.24,-25.84,-297.92
521493.6108,167.445,-70.028,1006.012,-2126.25,-5031.25,533.75,-51.68,-10.64,-287.28
521493.6608,173.789,-80.093,1007.232,-1251.25,-5381.25,1251.25,-66.88,-21.28,-296.4
521493.7108,175.436,-69.174,1010.953,385.0,-3123.75,-393.75,-48.64,-18.24,-308.56
521493.7608,155.916,-56.913,1008.147,-3027.5,-4550.0,-481.25,-59.28,-9.12,-293.36
521493.8108,161.711,-72.712,1007.476,-2065.0,-5118.75,1443.75,-65.36,-30.4,-305.52
521493.8608,172.752,-75.152,1005.402,-1137.5,-4068.75,2345.0,-62.32,-13.68,-296.4
521493.9108,154.757,-68.137,1005.463,-2012.5,-4646.25,367.5,-79.04,-19.76,-291.84
521493.9608,171.41,-80.215,1011.014,-2240.0,-5276.25,43.75,-59.28,-13.68,-290.32
521494.0108,165.188,-65.026,1009.184,-936.25,-3946.25,341.25,-51.68,-18.24,-304.0
521494.0608,159.576,-72.468,1008.452,-1776.25,-4847.5,866.25,-59.28,-31.92,-297.92
521494.1108,169.702,-73.627,1007.537,-148.75,-4698.75,831.25,-54.72,-21.28,-300.96
521494.1608,171.41,-60.268,1005.036,-1373.75,-3998.75,-516.25,-50.16,-28.88,-299.44
521494.2108,162.565,-64.782,1010.587,-2100.0,-3710.0,-341.25,-66.88,-6.08,-310.08
521494.2608,158.844,-69.357,1009.672,-1408.75,-4340.0,1837.5,-41.04,-18.24,-300.96
521494.3108,163.724,-68.869,1009.245,-2108.75,-4690.0,1181.25,-45.6,-33.44,-287.28
521494.3608,163.724,-76.555,1006.866,-2196.25,-4970.0,770.0,-62.32,-21.28,-285.76
521494.4108,164.212,-68.808,1004.548,-980.0,-5162.5,595.0,-56.24,-6.08,-307.04
521494.4608,164.151,-65.819,1006.012,-2476.25,-5372.5,78.75,-57.76,-27.36,-308.56
521494.5109,176.717,-80.459,1010.892,-1540.0,-5425.0,980.0,-68.4,-21.28,-288.8
521494.5608,166.286,-63.074,1009.001,-8.75,-2852.5,533.75,-56.24,-19.76,-308.56
521494.6108,157.319,-52.826,1007.293,-2292.5,-4733.75,-218.75,-42.56,-22.8,-293.36
521494.6608,165.92,-75.579,1008.818,-2248.75,-4961.25,1190.0,-56.24,-19.76,-311.6
521494.7108,169.519,-73.505,1007.598,-1303.75,-4602.5,2047.5,-59.28,-27.36,-308.56
521494.7608,163.724,-68.076,1007.049,-2563.75,-4375.0,980.0,-53.2,-19.76,-290.32
521494.8108,172.874,-82.533,1010.282,-1347.5,-4558.75,901.25,-57.76,-30.4,-305.52
521494.8608,167.018,-73.871,1010.465,-988.75,-4138.75,945.0,-59.28,-25.84,-311.6
521494.9108,165.615,-76.799,1009.794,-1478.75,-5608.75,122.5,-60.8,-12.16,-310.08
521494.9608,174.704,-70.15,1007.476,-61.25,-4322.5,-682.5,-50.16,-15.2,-311.6
521495.0108,168.421,-55.388,1006.744,-752.5,-3990.0,-813.75,-53.2,-16.72,-308.56
521495.0608,164.334,-66.185,1007.415,-2108.75,-4226.25,787.5,-62.32,-19.76,-293.36
521495.1108,161.04,-70.516,1009.489,-1898.75,-4786.25,2038.75,-47.12,-19.76,-313.12
521495.1608,163.785,-67.71,1009.611,-2091.25,-4882.5,1146.25,-53.2,-22.8,-311.6
521495.2108,166.225,-77.409,1008.391,-1680.0,-5276.25,770.0,-57.76,-28.88,-310.08
521495.2608,167.933,-69.357,1006.988,-1828.75,-5556.25,918.75,-63.84,-16.72,-290.32
521495.3108,172.02,-77.958,1003.511,-2196.25,-5582.5,673.75,-53.2,-21.28,-314.64
521495.3608,186.477,-85.644,1007.415,-875.0,-4777.5,105.0,-56.24,-12.16,-293.36
521495.4108,166.896,-60.817,1010.953,271.25,-1968.75,-700.0,-60.8,-16.72,-282.72
521495.4608,162.321,-58.499,1009.306,-2765.0,-5092.5,-315.0,-59.28,-15.2,-304.0
521495.5108,170.007,-68.625,1008.574,-2695.0,-4558.75,1487.5,-54.72,-12.16,-299.44
521495.5608,165.859,-72.285,1009.001,-1785.0,-3806.25,2590.0,-60.8,-15.2,-297.92
521495.6108,161.772,-68.381,1005.524,-2546.25,-4252.5,1435.0,-65.36,-22.8,-313.12
521495.6608,165.31,-84.119,1010.16,-1251.25,-4112.5,516.25,-56.24,-7.6,-305.52
521495.7108,160.979,-68.198,1009.428,-1470.0,-4331.25,-332.5,-60.8,-19.76,-290.32
521495.7608,160.979,-79.361,1006.805,-1531.25,-5451.25,-140.0,-59.28,-22.8,-296.4
521495.8108,171.349,-67.954,1005.219,201.25,-4410.0,70.0,-62.32,-21.28,-300.96
521495.8608,166.652,-56.547,1004.67,-1706.25,-4340.0,-875.0,-54.72,-10.64,-296.4
521495.9108,165.432,-63.013,1007.171,-2493.75,-4173.75,35.0,-53.2,-22.8,-294.88
521495.9609,160.552,-70.211,1009.733,-1610.0,-4235.0,1995.0,-50.16,-22.8,-285.76
521496.0108,165.737,-71.309,1009.489,-2213.75,-4777.5,2108.75,-60.8,-22.8,-314.64
521496.0608,165.188,-79.117,1008.147,-1855.0,-4383.75,1146.25,-45.6,-25.84,-299.44
521496.1108,166.103,-69.235,1005.463,-1435.0,-4523.75,288.75,-50.16,-21.28,-290.32
521496.1608,168.482,-73.322,1009.855,-2310.0,-4541.25,140.0,-74.48,-19.76,-291.84
521496.2108,172.508,-82.167,1009.428,-910.0,-4471.25,1312.5,-60.8,-22.8,-316.16
521496.2608,170.007,-68.808,1009.245,341.25,-3640.0,323.75,-48.64,-28.88,-302.48
521496.3108,156.77,-61.793,1006.927,-2493.75,-4515.0,-586.25,-57.76,-21.28,-305.52
521496.3608,164.883,-73.566,1008.513,-2336.25,-4663.75,1417.5,-57.76,-31.92,-297.92
521496.4108,167.567,-77.897,1007.476,-1610.0,-4191.25,2397.5,-53.2,-16.72,-296.4
521496.4608,156.77,-71.98,1009.245,-1645.0,-4296.25,918.75,-41.04,-22.8,-300.96
521496.5108,173.972,-83.326,1009.733,-1417.5,-4628.75,288.75,-53.2,-27.36,-291.84
521496.5608,164.578,-70.76,1006.927,-1111.25,-4042.5,-218.75,-62.32,-25.84,-311.6
521496.6108,163.785,-78.08,1006.988,-1216.25,-4917.5,192.5,-45.6,-24.32,-287.28
521496.6608,167.445,-75.762,1007.171,-402.5,-4646.25,315.0,-54.72,-18.24,-307.04
521496.7108,165.676,-61.976,1006.927,-1085.0,-3648.75,-621.25,-56.24,-21.28,-304.0
521496.7608,159.759,-64.599,1011.136,-2196.25,-4287.5,927.5,-45.6,-4.56,-293.36
521496.8108,158.661,-70.882,1009.916,-1942.5,-4130.0,1776.25,-54.72,-28.88,-311.6
521496.8608,161.284,-73.932,1011.258,-1925.0,-4427.5,1513.75,-66.88,-34.96,-299.44
521496.9108,160.552,-74.298,1011.014,-2021.25,-4873.75,1163.75,-45.6,-25.84,-308.56
521496.9608,161.284,-77.714,1009.916,-1163.75,-4882.5,525.0,-44.08,-21.28,-304.0
521497.0108,166.896,-69.784,1009.611,-2275.0,-5153.75,122.5,-47.12,-12.16,-296.4
521497.0608,167.201,-81.984,1006.378,-1846.25,-4628.75,673.75,-56.24,-15.2,-297.92
521497.1108,168.604,-70.638,1010.709,262.5,-3062.5,-236.25,-54.72,-7.6,-305.52
521497.1608,156.953,-59.841,1008.147,-2817.5,-4077.5,-420.0,-47.12,-25.84,-291.84
521497.2108,159.515,-76.86,1011.746,-2143.75,-4593.75,1557.5,-63.84,-19.76,-305.52
521497.2608,165.554,-75.762,1007.903,-1706.25,-4305.0,2292.5,-59.28,-21.28,-305.52
521497.3108,162.199,-75.762,1008.879,-1522.5,-3447.5,577.5,-50.16,-13.68,-291.84
521497.3608,165.005,-81.496,1007.415,-2205.0,-4970.0,43.75,-51.68,-6.08,-308.56
521497.4108,162.626,-69.113,1010.404,-918.75,-3368.75,26.25,-69.92,-25.84,-299.44
521497.4608,155.062,-76.372,1009.001,-1627.5,-4646.25,463.75,-42.56,-15.2,-310.08
521497.5109,167.689,-71.553,1005.707,-245.0,-4278.75,271.25,-57.76,-16.72,-314.64
521497.5608,165.615,-61.732,1007.293,-840.0,-3578.75,-717.5,-44.08,-15.2,-290.32
521497.6108,158.539,-62.525,1008.147,-2266.25,-3386.25,175.0,-60.8,-22.8,-299.44
521497.6608,156.465,-74.115,1010.16,-1951.25,-4033.75,2896.25,-54.72,-7.6,-307.04
521497.7108,158.295,-75.884,1009.55,-1855.0,-4068.75,2240.0,-51.68,-25.84,-290.32
521497.7608,157.929,-78.751,1009.977,-2065.0,-4121.25,367.5,-56.24,-30.4,-297.92
521497.8108,156.16,-79.178,1010.648,-1347.5,-4278.75,350.0,-57.76,-15.2,-296.4
521497.8608,158.051,-72.529,1008.33,-1645.0,-4917.5,586.25,-53.2,-16.72,-282.72
521497.9108,158.478,-79.422,1008.513,-1618.75,-4760.0,1146.25,-48.64,-18.24,-305.52
521497.9608,166.652,-80.276,1011.624,-752.5,-4025.0,367.5,-45.6,-22.8,-310.08
521498.0108,148.047,-59.048,1009.55,-2205.0,-3902.5,-472.5,-47.12,-12.16,-304.0
521498.0608,154.147,-78.08,1007.842,-2047.5,-5013.75,1583.75,-65.36,-7.6,-299.44
521498.1108,160.857,-77.226,1012.234,-1890.0,-4856.25,2590.0,-59.28,-16.72,-296.4
521498.1608,153.964,-75.274,1007.171,-1373.75,-3972.5,901.25,-59.28,-10.64,-310.08
521498.2108,156.404,-75.64,1009.489,-2065.0,-4996.25,122.5,-56.24,-24.32,-300.96
521498.2608,163.114,-78.263,1011.258,-647.5,-4480.0,-236.25,-54.72,-16.72,-304.0
521498.3108,155.001,-77.775,1007.659,-1522.5,-4646.25,253.75,-44.08,-6.08,-305.52
521498.3608,158.905,-77.043,1008.513,-542.5,-5083.75,831.25,-60.8,-22.8,-291.84
521498.4108,161.223,-61.915,1008.574,-1067.5,-4340.0,-131.25,-57.76,-28.88,-313.12
521498.4608,153.903,-65.758,1008.391,-2187.5,-4208.75,-271.25,-59.28,-18.24,-304.0
521498.5108,155.367,-75.03,1010.709,-2047.5,-4786.25,1697.5,-47.12,-15.2,-307.04
521498.5608,158.051,-76.677,1011.319,-1881.25,-4663.75,1566.25,-69.92,-25.84,-302.48
521498.6108,158.6,-77.775,1010.709,-2047.5,-4873.75,962.5,-62.32,-22.8,-313.12
521498.6608,158.478,-82.289,1008.391,-1041.25,-4821.25,376.25,-42.56,-4.56,-299.44
521498.7108,159.149,-68.869,1005.219,-1767.5,-5013.75,-236.25,-51.68,-19.76,-293.36
521498.7608,163.48,-78.507,1004.426,-2336.25,-4646.25,140.0,-68.4,-22.8,-290.32
521498.8108,174.643,-83.143,1012.783,-148.75,-3753.75,577.5,-54.72,-22.8,-307.04
521498.8608,159.149,-59.597,1008.208,-437.5,-2730.0,26.25,-48.64,-4.56,-299.44
521498.9108,151.89,-68.93,1010.099,-2572.5,-4506.25,262.5,-48.64,-33.44,-291.84
521498.9608,157.563,-76.616,1008.757,-2021.25,-4523.75,2248.75,-53.2,-19.76,-305.52
521499.0108,159.515,-76.921,1010.953,-1583.75,-3955.0,1846.25,-56.24,-25.84,-296.4
521499.0609,152.378,-77.409,1009.367,-2511.25,-5040.0,910.0,-63.84,-24.32,-293.36
521499.1108,166.164,-80.947,1011.441,-1557.5,-4900.0,638.75,-66.88,-16.72,-300.96
521499.1608,148.84,-76.982,1010.404,-1741.25,-4366.25,735.0,-48.64,-12.16,-314.64
521499.2108,159.759,-81.374,1008.025,-700.0,-5083.75,236.25,-41.04,-19.76,-282.72
521499.2608,162.809,-71.797,1007.598,-280.0,-4550.0,-210.0,-62.32,-25.84,-297.92
521499.3108,155.123,-63.867,1006.683,-1382.5,-4077.5,-595.0,-71.44,-21.28,-310.08
521499.3608,156.709,-75.03,1010.587,-1960.0,-4506.25,1443.75,-53.2,-24.32,-291.84
521499.4108,155.55,-78.995,1011.502,-1408.75,-4348.75,1995.0,-57.76,-21.28,-296.4
521499.4608,158.051,-75.03,1007.293,-1995.0,-4655.0,848.75,-65.36,-10.64,-297.92
521499.5108,158.173,-79.849,1008.513,-1697.5,-4550.0,840.0,-51.68,-13.68,-304.0
521499.5608,154.208,-70.882,1008.086,-1767.5,-4707.5,516.25,-47.12,-24.32,-313.12
521499.6108,158.905,-77.958,1002.962,-2170.0,-5040.0,428.75,-56.24,-25.84,-297.92
521499.6608,171.227,-83.997,1012.478,-1111.25,-4445.0,743.75,-59.28,-22.8,-300.96
521499.7108,147.742,-64.904,1006.988,-1006.25,-3255.0,297.5,-39.52,-16.72,-300.96
521499.7608,151.158,-65.209,1010.587,-2922.5,-5223.75,332.5,-36.48,-10.64,-299.44
521499.8108,156.16,-81.008,1009.428,-1942.5,-4506.25,1942.5,-44.08,-16.72,-294.88
521499.8608,160.552,-72.895,1009.794,-1750.0,-3850.0,1820.0,-63.84,-12.16,-305.52
521499.9108,149.877,-79.178,1008.879,-3018.75,-5083.75,953.75,-50.16,-13.68,-314.64
521499.9608,163.236,-85.034,1009.855,-1233.75,-4392.5,498.75,-56.24,-15.2,-307.04
521500.0108,149.206,-84.973,1010.282,-1522.5,-4873.75,376.25,-66.88,-22.8,-308.56
521500.0608,158.905,-84.058,1010.282,-210.0,-5451.25,280.0,-48.64,-27.36,-304.0
521500.1108,164.029,-65.087,1006.927,-183.75,-3911.25,-778.75,-39.52,-10.64,-296.4
521500.1608,151.829,-63.196,1010.953,-2012.5,-4357.5,-988.75,-68.4,-13.68,-297.92
521500.2108,155.367,-78.385,1009.794,-1785.0,-4690.0,1356.25,-63.84,-21.28,-302.48
521500.2608,154.879,-74.237,1010.587,-1557.5,-4830.0,1811.25,-60.8,-6.08,-304.0
521500.3108,158.905,-78.08,1011.075,-2231.25,-5092.5,1225.0,-53.2,-21.28,-287.28
521500.3608,158.966,-83.814,1009.428,-1216.25,-4453.75,787.5,-54.72,-19.76,-290.32
521500.4108,160.247,-72.59,1006.256,-1592.5,-4576.25,26.25,-57.76,-12.16,-294.88
521500.4608,161.04,-83.265,1006.378,-1890.0,-4217.5,43.75,-36.48,-13.68,-305.52
521500.511,169.763,-84.241,1012.417,17.5,-3500.0,805.0,-54.72,1.52,-288.8
521500.5608,153.293,-66.551,1008.147,-341.25,-2563.75,70.0,-50.16,-15.2,-304.0
521500.6108,153.964,-69.113,1010.953,-2406.25,-4935.0,-131.25,-65.36,-4.56,-305.52
521500.6608,154.513,-78.69,1010.221,-1653.75,-4593.75,1636.25,-38.0,-16.72,-314.64
521500.7108,158.478,-74.847,1008.879,-1636.25,-3893.75,1898.75,-60.8,-27.36,-304.0
521500.7608,152.866,-78.08,1011.319,-2336.25,-5013.75,1181.25,-59.28,-22.8,-311.6
521500.8108,157.99,-82.838,1011.38,-1513.75,-4392.5,603.75,-39.52,-16.72,-308.56
521500.8608,153.171,-77.226,1008.818,-1960.0,-4917.5,227.5,-38.0,-7.6,-304.0
521500.9108,154.269,-85.095,1009.794,-875.0,-5346.25,122.5,-59.28,-25.84,-291.84
521500.9608,161.162,-74.542,1007.598,-192.5,-4830.0,131.25,-53.2,-15.2,-294.88
521501.0108,156.343,-65.514,1006.988,-1750.0,-4366.25,-560.0,-41.04,-6.08,-304.0
521501.0608,158.051,-70.455,1009.977,-2222.5,-4278.75,253.75,-65.36,-27.36,-317.68
521501.1108,157.929,-75.274,1009.123,-1881.25,-4357.5,2021.25,-48.64,-6.08,-308.56
521501.1608,162.138,-77.897,1007.11,-2231.25,-4147.5,1190.0,-54.72,-12.16,-305.52
521501.2108,159.393,-83.509,1008.757,-1618.75,-3797.5,1190.0,-47.12,-15.2,-285.76
521501.2608,150.121,-73.627,1009.916,-2082.5,-4077.5,586.25,-60.8,-10.64,-308.56
521501.3108,155.184,-83.875,1007.72,-2563.75,-4287.5,280.0,-39.52,-13.68,-305.52
521501.3608,162.138,-90.951,1010.038,-446.25,-4051.25,595.0,-38.0,-30.4,-299.44
521501.4108,146.4,-63.501,1009.55,-1146.25,-3622.5,-1067.5,-56.24,-27.36,-293.36
521501.4608,144.509,-71.37,1009.794,-2362.5,-5013.75,-236.25,-48.64,-6.08,-290.32
521501.5108,149.572,-78.934,1005.341,-1811.25,-4978.75,2047.5,-51.68,-15.2,-291.84
521501.5608,157.197,-81.191,1012.6,-1645.0,-4392.5,1268.75,-39.52,-21.28,-305.52
521501.6108,146.217,-73.2,1010.282,-2485.0,-5416.25,61.25,-51.68,-10.64,-297.92
521501.6608,157.685,-85.766,1012.661,-1163.75,-5783.75,-26.25,-53.2,-15.2,-300.96
521501.7108,162.443,-74.115,1009.55,-1190.0,-5206.25,306.25,-53.2,-13.68,-310.08
521501.7608,156.587,-80.154,1006.134,-1085.0,-5556.25,332.5,-60.8,-6.08,-299.44
521501.8108,158.966,-71.614,1008.33,-393.75,-4821.25,-306.25,-54.72,-13.68,-308.56
521501.8608,155.123,-65.331,1009.306,-1391.25,-4322.5,-1286.25,-50.16,-13.68,-284.24
521501.9108,154.574,-75.945,1010.587,-1995.0,-4567.5,568.75,-68.4,-13.68,-300.96
521501.9608,152.317,-75.457,1010.831,-1575.0,-4786.25,1977.5,-53.2,-9.12,-299.44
521502.0108,157.624,-82.655,1008.452,-2012.5,-4891.25,1076.25,-36.48,-21.28,-310.08
521502.0609,154.086,-83.692,1008.818,-1338.75,-5022.5,-35.0,-42.56,-22.8,-297.92
521502.1108,157.746,-74.908,1007.964,-1583.75,-5145.0,-358.75,-53.2,-21.28,-300.96
521502.1608,162.931,-82.289,1005.89,-1505.0,-4917.5,560.0,-44.08,-18.24,-296.4
521502.2108,169.214,-82.35,1008.269,315.0,-3587.5,131.25,-38.0,0.0,-300.96
521502.2608,154.147,-62.525,1007.476,-883.75,-3185.0,-980.0,-54.72,-25.84,-307.04
521502.3108,150.792,-78.446,1012.112,-2283.75,-4698.75,306.25,-42.56,-10.64,-304.0
521502.3608,155.977,-76.067,1010.099,-1715.0,-4838.75,2135.0,-44.08,-21.28,-304.0
521502.4108,160.43,-78.324,1009.184,-1408.75,-4033.75,1163.75,-66.88,-16.72,-296.4
521502.4608,155.428,-83.265,1008.513,-2091.25,-5118.75,166.25,-59.28,-3.04,-317.68
521502.5108,161.772,-82.167,1011.929,-463.75,-4777.5,-385.0,-50.16,-19.76,-293.36
521502.5608,155.306,-73.932,1007.964,-1610.0,-4488.75,-113.75,-50.16,-19.76,-307.04
521502.6108,158.234,-79.788,1007.842,-813.75,-4690.0,437.5,-51.68,-18.24,-308.56
521502.6608,158.417,-68.137,1008.086,-350.0,-4392.5,-297.5,-47.12,-10.64,-308.56
521502.7108,152.622,-62.647,1011.929,-1855.0,-4418.75,-87.5,-51.68,-24.32,-293.36
521502.7608,149.084,-71.919,1009.672,-2563.75,-4952.5,927.5,-57.76,-10.64,-297.92
521502.8108,157.38,-82.655,1010.587,-1268.75,-4900.0,1785.0,-51.68,-10.64,-300.96
521502.8608,154.635,-81.496,1008.269,-1968.75,-4760.0,105.0,-57.76,-4.56,-294.88
521502.9108,156.16,-84.241,1010.465,-656.25,-4777.5,-140.0,-62.32,-27.36,-305.52
521502.9608,156.77,-70.211,1008.208,-1321.25,-5101.25,-647.5,-60.8,-30.4,-290.32
521503.0108,160.369,-74.542,1005.829,-1548.75,-4786.25,-376.25,-47.12,-15.2,-307.04
521503.0608,170.617,-74.176,1009.306,271.25,-3508.75,-26.25,-51.68,-34.96,-307.04
521503.1108,147.132,-56.608,1006.988,-2327.5,-3815.0,-61.25,-51.68,-19.76,-310.08
521503.1608,148.413,-69.052,1011.624,-2765.0,-4935.0,1233.75,-50.16,-16.72,-296.4
521503.2108,160.552,-80.093,1009.306,-1951.25,-5040.0,2808.75,-42.56,-16.72,-307.04
521503.2608,159.393,-75.884,1006.866,-1837.5,-4410.0,1347.5,-60.8,-25.84,-305.52
521503.3108,161.955,-84.241,1008.879,-2686.25,-5337.5,280.0,-66.88,-19.76,-288.8
521503.3608,159.271,-77.531,1012.417,-831.25,-4200.0,210.0,-51.68,3.04,-308.56
521503.4108,155.001,-78.08,1008.757,-1592.5,-5110.0,218.75,-51.68,-19.76,-311.6
521503.4608,164.273,-78.507,1007.903,-140.0,-5101.25,-183.75,-53.2,-31.92,-282.72
521503.5108,165.188,-68.381,1006.134,-420.0,-4313.75,-813.75,-53.2,-9.12,-304.0
521503.5608,159.027,-61.549,1007.842,-2362.5,-4182.5,-350.0,-59.28,3.04,-297.92
521503.6109,158.539,-77.775,1008.879,-1933.75,-4252.5,2388.75,-60.8,-24.32,-307.04
521503.6608,154.269,-77.226,1012.295,-1408.75,-4375.0,2441.25,-50.16,-18.24,-310.08
521503.7108,157.929,-80.581,1006.805,-1837.5,-5302.5,883.75,-53.2,-21.28,-297.92
521503.7608,156.343,-73.993,1010.16,-1723.75,-4637.5,-96.25,-57.76,-36.48,-281.2
521503.8108,160.369,-76.494,1006.561,-2581.25,-5407.5,-96.25,-66.88,-18.24,-294.88
521503.8608,170.739,-86.01,1009.367,-778.75,-4865.0,1015.0,-56.24,-36.48,-307.04
521503.9108,166.103,-70.394,1009.184,236.25,-2931.25,218.75,-59.28,-27.36,-296.4
521503.9608,149.755,-64.355,1005.585,-2765.0,-4917.5,-341.25,-48.64,-15.2,-305.52
521504.0108,162.931,-77.531,1009.55,-2065.0,-4480.0,1417.5,-45.6,-7.6,-299.44
521504.0608,159.759,-79.971,1009.245,-1513.75,-4340.0,2388.75,-57.76,-19.76,-296.4
521504.1108,153.537,-76.677,1006.134,-2371.25,-4996.25,1496.25,-62.32,-31.92,-281.2
521504.1608,166.286,-89.365,1009.916,-1662.5,-5311.25,726.25,-53.2,-13.68,-294.88
521504.2108,156.953,-68.564,1007.964,-1295.0,-3876.25,-306.25,-38.0,-27.36,-302.48
521504.2608,153.598,-85.888,1011.197,-1120.0,-4900.0,-113.75,-57.76,-21.28,-294.88
521504.3108,161.833,-78.446,1008.635,245.0,-5311.25,306.25,-50.16,-18.24,-307.04
521504.3608,158.722,-67.649,1005.463,-1041.25,-4506.25,-708.75,-51.68,-22.8,-305.52
521504.4108,158.722,-66.002,1010.709,-1776.25,-4506.25,43.75,-53.2,-27.36,-305.52
521504.4608,157.258,-71.309,1012.234,-1802.5,-4558.75,1076.25,-54.72,-13.68,-299.44
521504.5108,157.868,-72.407,1009.672,-1645.0,-4751.25,1312.5,-39.52,-21.28,-300.96
521504.5608,156.709,-76.189,1009.55,-1898.75,-5328.75,1505.0,-47.12,-13.68,-300.96
521504.6108,158.234,-70.638,1011.258,-1820.0,-5390.0,717.5,-44.08,-30.4,-308.56
521504.6608,162.504,-82.411,1006.622,-2406.25,-5757.5,437.5,-38.0,-16.72,-296.4
521504.7108,169.153,-83.875,1008.574,-1102.5,-5433.75,778.75,-41.04,-21.28,-296.4
521504.7608,165.066,-64.416,1006.317,-743.75,-3158.75,113.75,-45.6,-15.2,-279.68
521504.8108,151.463,-66.368,1009.367,-2546.25,-4970.0,-70.0,-57.76,-24.32,-310.08
521504.8608,164.273,-78.812,1005.707,-2222.5,-4593.75,1715.0,-51.68,-15.2,-299.44
521504.9108,165.615,-78.751,1006.927,-1793.75,-4217.5,1898.75,-51.68,-28.88,-300.96
521504.9608,158.356,-76.189,1003.755,-2590.0,-4462.5,1102.5,-53.2,-19.76,-291.84
521505.0108,172.447,-86.498,1009.733,-1382.5,-4086.25,840.0,-48.64,-16.72,-310.08
521505.0608,155.611,-77.043,1007.049,-1557.5,-3850.0,367.5,-45.6,-15.2,-296.4
521505.1108,160.003,-82.96,1009.367,-1356.25,-4628.75,175.0,-69.92,-25.84,-290.32
521505.1609,166.286,-73.261,1009.977,-113.75,-2913.75,-236.25,-50.16,-15.2,-310.08
521505.2108,152.988,-63.074,1008.208,-1120.0,-3298.75,-796.25,-42.56,-24.32,-313.12
521505.2608,151.219,-72.346,1010.16,-2222.5,-4436.25,945.0,-59.28,-21.28,-296.4
521505.3108,149.084,-77.958,1010.892,-1592.5,-4970.0,2450.0,-48.64,-21.28,-304.0
521505.3608,154.513,-77.897,1009.855,-2003.75,-5477.5,1408.75,-56.24,-3.04,-314.64
521505.4108,159.21,-82.533,1006.073,-1750.0,-4978.75,481.25,-53.2,-28.88,-291.84
521505.4608,155.672,-74.908,1009.062,-1645.0,-5250.0,542.5,-59.28,-18.24,-291.84
521505.5108,161.955,-85.4,1007.415,-2266.25,-5582.5,542.5,-68.4,-10.64,-308.56
521505.5608,177.266,-85.4,1010.465,-201.25,-4865.0,682.5,-57.76,-9.12,-302.48
521505.6108,163.785,-67.1,1008.33,-603.75,-3526.25,-525.0,-59.28,-18.24,-307.04
521505.6608,160.003,-72.651,1007.354,-2765.0,-5048.75,122.5,-69.92,-9.12,-290.32
521505.7108,163.358,-81.679,1007.842,-1898.75,-4550.0,1898.75,-54.72,-10.64,-307.04
521505.7608,167.933,-82.106,1005.646,-1400.0,-3885.0,1872.5,-47.12,-9.12,-313.12
521505.8108,158.783,-78.812,1008.818,-2266.25,-4235.0,805.0,-47.12,-21.28,-307.04
521505.8608,166.957,-88.023,1010.282,-1181.25,-3710.0,122.5,-44.08,-9.12,-297.92
521505.9108,154.696,-77.104,1009.184,-1400.0,-3508.75,-253.75,-44.08,-18.24,-304.0
521505.9608,154.025,-79.422,1009.611,-682.5,-4593.75,96.25,-63.84,-27.36,-304.0
521506.0108,160.979,-72.224,1010.343,-52.5,-4051.25,297.5,-56.24,-27.36,-305.52
521506.0608,151.646,-62.647,1009.794,-1802.5,-4506.25,-332.5,-42.56,-16.72,-299.44
521506.1108,153.537,-70.516,1008.147,-2563.75,-4208.75,446.25,-45.6,-22.8,-305.52
521506.1608,155.977,-78.629,1007.964,-1785.0,-4681.25,2397.5,-45.6,-9.12,-296.4
521506.2108,154.269,-81.496,1008.208,-2047.5,-5083.75,1233.75,-34.96,-16.72,-291.84
521506.2608,157.929,-84.241,1007.781,-1881.25,-5223.75,665.0,-62.32,-10.64,-302.48
521506.3108,160.003,-76.25,1006.073,-1933.75,-5057.5,166.25,-69.92,-24.32,-310.08
521506.3608,161.955,-82.594,1004.853,-2222.5,-5075.0,253.75,-60.8,4.56,-311.6
521506.4108,171.898,-90.158,1011.197,-393.75,-4375.0,437.5,-53.2,-21.28,-288.8
521506.4608,148.352,-59.048,1008.208,-1487.5,-3937.5,-883.75,-50.16,-36.48,-294.88
521506.5108,151.646,-73.017,1009.489,-3018.75,-5127.5,201.25,-59.28,-10.64,-300.96
521506.5608,156.953,-81.923,1009.306,-1715.0,-5407.5,2467.5,-36.48,-9.12,-307.04
521506.6108,161.894,-79.422,1009.123,-1505.0,-4261.25,560.0,-72.96,-10.64,-282.72
521506.6608,156.465,-77.531,1008.635,-2590.0,-5302.5,113.75,-56.24,-18.24,-304.0
521506.7109,168.848,-82.838,1009.428,-428.75,-4497.5,157.5,-57.76,-9.12,-296.4
521506.7608,164.578,-73.871,1003.633,-1365.0,-3920.0,-96.25,-44.08,-28.88,-294.88
521506.8108,163.663,-83.631,1008.269,-761.25,-4252.5,227.5,-59.28,-16.72,-299.44
521506.8608,162.565,-67.1,1005.28,-507.5,-3281.25,-411.25,-51.68,-3.04,-299.44
521506.9108,158.478,-69.357,1009.794,-1592.5,-2931.25,-393.75,-56.24,-7.6,-296.4
521506.9608,148.169,-76.006,1011.807,-1916.25,-4235.0,1540.0,-68.4,-27.36,-305.52
521507.0108,152.5,-79.117,1010.099,-1741.25,-4182.5,2205.0,-48.64,-22.8,-293.36
521507.0608,149.633,-82.228,1007.72,-2030.0,-4908.75,953.75,-53.2,-12.16,-285.76
521507.1108,154.818,-80.276,1010.465,-1111.25,-4453.75,105.0,-36.48,-28.88,-300.96
521507.1608,151.402,-73.261,1010.465,-1732.5,-5075.0,140.0,-53.2,-18.24,-308.56
521507.2108,158.173,-82.533,1005.646,-1785.0,-5031.25,428.75,-38.0,-13.68,-302.48
