TimeStamp,ax,ay,az,gx,gy,gz,mx,my,mz
334452.1809,455.792,-132.614,916.464,-1942.5,-4707.5,-4523.75,-135.28,6.08,-231.04
334452.2309,457.317,-115.656,916.281,-1041.25,-4348.75,-3281.25,-127.68,-4.56,-226.48
334452.2809,453.352,-130.906,919.209,-1102.5,-2301.25,848.75,-126.16,-9.12,-234.08
334452.3309,451.461,-127.429,917.318,901.25,-4716.25,4480.0,-132.24,3.04,-232.56
334452.3809,459.147,-127.551,918.66,1233.75,-3937.5,3053.75,-126.16,4.56,-234.08
334452.4309,446.581,-109.739,915.122,-726.25,-4943.75,4261.25,-127.68,15.2,-234.08
334452.4809,463.844,-137.982,923.357,-866.25,-2651.25,2887.5,-142.88,6.08,-229.52
334452.5309,439.2,-117.242,922.076,-2056.25,-2616.25,656.25,-115.52,13.68,-229.52
334452.5809,423.401,-126.88,930.433,-3001.25,-5153.75,-332.5,-123.12,-4.56,-231.04
334452.6309,438.59,-126.026,922.381,-1925.0,-5468.75,-2327.5,-117.04,4.56,-232.56
334452.6809,431.331,-126.575,925.065,-1233.75,-2896.25,1023.75,-126.16,7.6,-235.6
334452.7309,447.435,-101.138,917.928,-2091.25,-3806.25,-1601.25,-117.04,9.12,-232.56
334452.781,430.538,-116.205,930.006,-3290.0,-3928.75,-568.75,-120.08,-6.08,-235.6
334452.8309,449.082,-67.222,928.115,-3963.75,-5460.0,-4847.5,-136.8,1.52,-240.16
334452.8809,454.755,-110.776,931.043,-12267.5,-2143.75,-5573.75,-130.72,4.56,-240.16
334452.9309,406.992,-178.608,920.917,-1443.75,-2318.75,3613.75,-126.16,15.2,-223.44
334452.9809,422.242,-143.411,930.494,4217.5,1557.5,9467.5,-124.64,3.04,-229.52
334453.0309,397.781,-130.113,944.097,2021.25,-61.25,8933.75,-132.24,15.2,-237.12
334453.081,409.737,-147.62,944.829,-6860.0,-4698.75,586.25,-124.64,4.56,-228.0
334453.1309,408.395,-160.613,923.357,726.25,-7638.75,-175.0,-124.64,6.08,-250.8
334453.1809,446.764,-124.928,920.612,-2100.0,-8330.0,-2073.75,-117.04,7.6,-250.8
334453.2309,465.064,-158.356,925.431,-2152.5,-6203.75,-350.0,-136.8,18.24,-238.64
334453.2809,447.13,-148.23,919.941,2835.0,-3132.5,1968.75,-115.52,18.24,-237.12
334453.3309,432.49,-122.0,920.551,-717.5,-2432.5,2231.25,-117.04,16.72,-215.84
334453.3809,432.246,-149.023,935.191,-3998.75,-4663.75,-525.0,-130.72,18.24,-232.56
334453.4309,433.039,-154.147,932.324,1741.25,-1951.25,148.75,-109.44,6.08,-240.16
334453.481,413.946,-109.739,922.686,-918.75,-4042.5,-1417.5,-110.96,0.0,-235.6
334453.5309,427.366,-109.983,928.298,-3570.0,-4235.0,-4961.25,-115.52,1.52,-235.6
334453.5809,417.24,-133.102,943.975,-3543.75,-3150.0,-1758.75,-141.36,0.0,-250.8
334453.6309,411.811,-139.141,935.618,883.75,-5381.25,3062.5,-112.48,7.6,-235.6
334453.6809,424.499,-138.47,936.96,533.75,-6230.0,3605.0,-115.52,9.12,-220.4
334453.7309,423.035,-131.516,924.516,1067.5,-5136.25,770.0,-133.76,7.6,-244.72
334453.7809,421.449,-123.647,929.762,-2126.25,-4252.5,-761.25,-136.8,-4.56,-243.2
334453.8309,405.406,-147.254,932.08,-980.0,-3018.75,1365.0,-126.16,1.52,-235.6
334453.8809,396.134,-134.932,935.008,175.0,-3806.25,2388.75,-101.84,10.64,-238.64
334453.9309,411.445,-143.472,949.892,8916.25,-5521.25,3465.0,-145.92,-7.6,-231.04
334453.9809,454.755,-106.567,925.736,5162.5,-10438.75,3053.75,-115.52,9.12,-234.08
334454.0309,430.599,-55.449,932.08,4025.0,-1373.75,-6396.25,-110.96,-9.12,-228.0
334454.0809,390.827,-53.619,930.616,-5652.5,-6308.75,-8137.5,-121.6,1.52,-246.24
334454.1309,426.146,-114.131,933.605,-5801.25,-4243.75,-4488.75,-103.36,-4.56,-232.56
334454.1809,419.68,-127.978,935.435,-6326.25,-4952.5,-2975.0,-117.04,-4.56,-237.12
334454.2309,397.964,-107.909,936.167,-5748.75,-2800.0,-5346.25,-115.52,3.04,-238.64
334454.2809,379.908,-97.356,943.426,-7245.0,122.5,-8618.75,-127.68,-7.6,-240.16
334454.3309,382.531,-125.416,952.942,-8793.75,-3132.5,-5512.5,-130.72,-3.04,-246.24
334454.381,401.197,-171.959,961.97,-857.5,-8548.75,201.25,-110.96,4.56,-244.72
334454.4309,420.29,-126.148,932.202,2660.0,-10036.25,4340.0,-135.28,-4.56,-241.68
334454.4809,421.388,-110.227,925.98,-105.0,-6142.5,2572.5,-130.72,-6.08,-237.12
334454.5309,429.44,-108.702,940.315,-1977.5,-8872.5,3307.5,-121.6,13.68,-238.64
334454.5809,443.409,-126.758,922.747,2598.75,-11165.0,4620.0,-129.2,-12.16,-228.0
334454.6309,479.521,-135.542,909.022,3815.0,-8251.25,10657.5,-136.8,1.52,-249.28
334454.6809,461.404,-98.881,899.262,2940.0,-6326.25,9240.0,-112.48,-6.08,-224.96
334454.7309,465.918,-122.671,912.072,-315.0,-2231.25,2677.5,-126.16,12.16,-238.64
334454.7809,434.259,-106.628,927.017,-2336.25,280.0,-2415.0,-129.2,4.56,-228.0
334454.831,411.201,-121.207,943.182,-2537.5,26.25,-3430.0,-126.16,7.6,-241.68
334454.8809,403.393,-103.212,938.18,-3010.0,-4208.75,-3797.5,-118.56,1.52,-237.12
334454.9309,424.255,-118.462,937.265,-2677.5,-4051.25,1417.5,-123.12,-6.08,-246.24
334454.9809,427.854,-124.623,930.982,-2782.5,-4541.25,1960.0,-124.64,7.6,-237.12
334455.0309,432.063,-123.281,923.418,-1023.75,-1408.75,1251.25,-121.6,0.0,-241.68
334455.081,414.861,-94.001,923.418,-2353.75,857.5,-1067.5,-115.52,3.04,-246.24
334455.1309,395.646,-134.322,951.356,-6265.0,-1391.25,-2957.5,-123.12,-10.64,-240.16
334455.1809,391.742,-154.33,949.953,-3692.5,-5066.25,-341.25,-115.52,3.04,-240.16
334455.2309,399.001,-141.703,943.243,962.5,-5985.0,586.25,-123.12,6.08,-223.44
334455.2809,391.62,-104.31,937.875,-787.5,-8758.75,-525.0,-133.76,-16.72,-231.04
334455.3309,437.187,-120.841,928.847,-3316.25,-8391.25,-2730.0,-129.2,4.56,-223.44
334455.3809,426.39,-115.9,928.237,-3307.5,-9327.5,-1067.5,-133.76,-4.56,-232.56
334455.4309,438.651,-127.185,925.736,-166.25,-3447.5,2380.0,-118.56,-10.64,-235.6
334455.4809,405.528,-118.767,931.592,-542.5,-4278.75,831.25,-126.16,6.08,-243.2
334455.531,416.02,-122.0,938.302,1032.5,-2800.0,-1050.0,-114.0,-9.12,-243.2
334455.5809,413.214,-125.782,935.374,-1942.5,-5888.75,-630.0,-141.36,0.0,-244.72
334455.6309,416.63,-131.028,935.679,533.75,-6387.5,770.0,-121.6,15.2,-226.48
334455.6809,426.573,-117.547,936.045,953.75,-4252.5,148.75,-114.0,-10.64,-238.64
334455.7309,405.223,-112.484,936.35,-1548.75,-5757.5,-1575.0,-133.76,4.56,-243.2
334455.7809,451.034,-130.906,930.372,-1846.25,-7665.0,-3911.25,-124.64,18.24,-243.2
334455.8309,475.434,-112.667,910.73,5678.75,-6343.75,131.25,-123.12,-13.68,-232.56
334455.8809,441.091,-92.659,904.752,4025.0,-2056.25,192.5,-121.6,3.04,-215.84
334455.9309,450.729,-111.752,929.152,4313.75,-5705.0,1592.5,-110.96,1.52,-241.68
334455.9809,411.689,-59.597,942.328,1391.25,1041.25,-6746.25,-127.68,-3.04,-234.08
334456.0309,385.215,-53.07,939.888,-2520.0,-2537.5,-8601.25,-118.56,-9.12,-249.28
334456.0809,414.129,-105.042,952.576,-6781.25,-3018.75,420.0,-121.6,-9.12,-231.04
334456.1309,404.247,-128.588,937.387,1767.5,-4672.5,5643.75,-138.32,-19.76,-237.12
334456.1809,408.7,-127.368,945.012,3832.5,-9677.5,7840.0,-107.92,-18.24,-246.24
334456.231,406.87,-71.614,930.555,-4243.75,-8295.0,-2590.0,-115.52,-6.08,-226.48
334456.2809,441.396,-93.635,938.729,-6133.75,-7070.0,-6973.75,-133.76,0.0,-238.64
334456.3309,401.685,-133.285,935.801,-9686.25,-9660.0,-3342.5,-121.6,-13.68,-247.76
334456.3809,449.997,-146.156,934.886,-402.5,-9712.5,927.5,-130.72,-9.12,-240.16
334456.4309,447.252,-100.406,919.026,3613.75,-9327.5,4646.25,-133.76,-9.12,-241.68
334456.4811,457.561,-89.853,924.516,-2896.25,-5363.75,-2135.0,-139.84,-7.6,-228.0
334456.5309,451.034,-91.927,928.847,-5215.0,-3263.75,-6378.75,-132.24,-16.72,-231.04
334456.581,428.708,-93.635,920.795,-6448.75,-4453.75,-7131.25,-127.68,-4.56,-223.44
334456.6309,434.015,-101.016,929.213,-3316.25,-5013.75,-5468.75,-115.52,-3.04,-249.28
334456.6809,433.283,-78.751,926.712,-3071.25,-7551.25,-2537.5,-141.36,-21.28,-246.24
334456.7309,453.047,-95.648,920.917,-3963.75,-7306.25,-1732.5,-121.6,15.2,-232.56
334456.7809,448.167,-99.552,921.893,-4961.25,-4165.0,-2030.0,-132.24,1.52,-235.6
334456.8309,415.349,-119.743,930.616,-2170.0,-2380.0,-2765.0,-132.24,-16.72,-234.08
334456.8809,430.904,-88.45,931.653,1076.25,-7813.75,-2686.25,-121.6,-7.6,-234.08
334456.9309,456.341,-88.45,926.285,-2686.25,-7428.75,-1015.0,-144.4,-10.64,-232.56
334456.9809,451.4,-123.586,928.054,743.75,-5171.25,3552.5,-130.72,-15.2,-229.52
334457.0309,444.446,-94.428,925.126,4077.5,-4261.25,5433.75,-142.88,-6.08,-226.48
334457.0809,436.943,-79.849,922.808,1356.25,-4515.0,4068.75,-135.28,-21.28,-234.08
334457.1309,440.664,-83.448,924.577,-813.75,-3193.75,3018.75,-127.68,-12.16,-232.56
334457.1809,431.453,-92.964,932.873,-551.25,-3718.75,2870.0,-121.6,-21.28,-228.0
334457.2309,434.198,-97.295,924.455,-1373.75,-5836.25,4200.0,-136.8,-13.68,-234.08
334457.2809,443.897,-100.65,928.969,-262.5,-5425.0,3832.5,-121.6,-13.68,-234.08
334457.3309,438.407,-96.075,928.115,-2012.5,-3281.25,2975.0,-126.16,-7.6,-247.76
334457.3809,421.998,-100.65,935.13,-1820.0,-5906.25,1443.75,-138.32,-4.56,-246.24
334457.4309,434.015,-99.369,929.03,-2257.5,-6238.75,43.75,-124.64,-6.08,-238.64
334457.4809,439.627,-97.783,927.627,-3027.5,-6755.0,183.75,-136.8,-6.08,-226.48
334457.5309,432.246,-111.203,931.836,-2642.5,-6886.25,2091.25,-129.2,-12.16,-229.52
334457.5809,425.963,-105.774,935.13,-1776.25,-7087.5,3202.5,-124.64,-15.2,-229.52
334457.6309,407.541,-87.596,937.875,-2590.0,-12118.75,2870.0,-130.72,-15.2,-226.48
334457.6809,449.57,-99.369,925.614,-5722.5,-13405.0,2476.25,-130.72,-13.68,-229.52
334457.7309,465.43,-130.418,914.207,-2957.5,-12932.5,3176.25,-135.28,-6.08,-217.36
334457.7809,464.454,-113.765,909.083,-1356.25,-9668.75,2257.5,-135.28,-9.12,-211.28
334457.831,463.478,-111.874,905.24,-3316.25,-10570.0,306.25,-133.76,-6.08,-215.84
334457.8809,480.619,-128.893,910.913,-3736.25,-7761.25,-2100.0,-141.36,6.08,-212.8
334457.9309,462.319,-120.475,910.12,-2056.25,-7175.0,-2537.5,-136.8,-3.04,-231.04
334457.9809,484.706,-115.839,899.201,-2905.0,-9423.75,-875.0,-126.16,6.08,-223.44
334458.0309,485.255,-115.168,898.164,-1916.25,-7210.0,700.0,-144.4,-9.12,-232.56
334458.0809,492.392,-115.839,897.066,-1986.25,-6711.25,1863.75,-120.08,3.04,-228.0
334458.1309,491.66,-116.876,902.556,-1496.25,-3876.25,1697.5,-141.36,15.2,-205.2
334458.1809,478.789,-116.937,904.447,-1811.25,-3290.0,516.25,-152.0,-10.64,-214.32
334458.231,479.094,-117.059,909.388,-2537.5,-4016.25,875.0,-123.12,10.64,-235.6
334458.2809,472.14,-127.124,912.377,-1785.0,-4182.5,726.25,-136.8,-7.6,-226.48
334458.3309,471.774,-118.279,908.778,-1321.25,-4296.25,288.75,-138.32,0.0,-221.92
334458.3809,474.641,-119.865,906.155,-3158.75,-5731.25,-236.25,-139.84,6.08,-208.24
334458.4309,491.477,-138.47,909.449,-2091.25,-5346.25,280.0,-132.24,-7.6,-214.32
334458.4809,481.168,-125.233,904.813,857.5,-3526.25,1216.25,-144.4,-6.08,-220.4
334458.531,473.421,-118.157,905.667,-577.5,-4611.25,1470.0,-139.84,-4.56,-218.88
334458.5809,478.179,-120.231,902.617,-1505.0,-4725.0,455.0,-139.84,7.6,-215.84
334458.6309,487.573,-127.856,903.41,-201.25,-3648.75,236.25,-136.8,4.56,-217.36
334458.6809,483.852,-119.133,902.922,-866.25,-2598.75,997.5,-138.32,3.04,-220.4
334458.7309,480.253,-122.793,913.414,463.75,35.0,988.75,-121.6,21.28,-217.36
334458.7809,445.849,-109.983,920.124,-96.25,-1163.75,358.75,-135.28,-9.12,-231.04
334458.8309,448.167,-111.691,921.161,-1286.25,-5582.5,-271.25,-132.24,-7.6,-231.04
334458.8809,475.556,-111.386,911.767,-1155.0,-4593.75,-717.5,-132.24,12.16,-224.96
334458.9309,462.807,-107.055,911.889,-918.75,-3753.75,218.75,-145.92,3.04,-234.08
334458.9809,461.831,-105.286,918.172,-1785.0,-4033.75,796.25,-136.8,-7.6,-237.12
334459.0309,462.197,-117.425,916.769,-2275.0,-4830.0,1566.25,-124.64,4.56,-226.48
334459.0809,456.341,-115.412,912.682,-953.75,-5206.25,1925.0,-135.28,-3.04,-228.0
334459.1309,470.493,-108.397,913.78,-2047.5,-5783.75,411.25,-124.64,3.04,-224.96
334459.1809,464.271,-131.455,918.172,-2607.5,-4541.25,341.25,-135.28,-3.04,-223.44
334459.2309,462.075,-118.95,915.976,892.5,-4313.75,323.75,-123.12,10.64,-223.44
334459.2809,454.755,-107.116,917.623,-2590.0,-5040.0,393.75,-121.6,3.04,-229.52
334459.3309,461.831,-123.586,913.536,-2362.5,-5451.25,1260.0,-120.08,-4.56,-231.04
334459.3809,460.733,-125.416,919.636,-857.5,-4707.5,2091.25,-145.92,6.08,-238.64
334459.4309,461.343,-116.388,915.671,-1837.5,-5792.5,1575.0,-133.76,3.04,-234.08
334459.4809,471.164,-127.246,911.523,-1898.75,-4891.25,1216.25,-142.88,0.0,-221.92
334459.5309,455.243,-120.597,916.037,-1242.5,-5005.0,945.0,-133.76,-4.56,-220.4
334459.5809,465.186,-120.78,914.207,-1128.75,-5512.5,-288.75,-124.64,0.0,-238.64
334459.6309,465.857,-117.913,914.817,-866.25,-4480.0,-586.25,-152.0,-9.12,-229.52
334459.6809,457.5,-108.641,914.024,-1233.75,-4838.75,-883.75,-136.8,13.68,-228.0
334459.7309,463.6,-113.643,916.098,-1977.5,-4121.25,-192.5,-139.84,-16.72,-218.88
334459.7809,453.962,-118.035,920.185,-1032.5,-4138.75,577.5,-127.68,-4.56,-226.48
334459.8309,455.182,-110.654,918.294,-1251.25,-4987.5,630.0,-139.84,6.08,-229.52
334459.8811,460.794,-113.399,917.257,-1557.5,-5486.25,140.0,-148.96,-6.08,-226.48
334459.9309,468.175,-117.486,914.329,-2590.0,-6361.25,778.75,-136.8,12.16,-235.6
334459.981,466.772,-110.593,909.632,-280.0,-4427.5,682.5,-145.92,7.6,-231.04
334460.0309,467.321,-107.543,908.168,-2152.5,-5215.0,857.5,-136.8,-4.56,-224.96
334460.0809,475.19,-124.196,909.754,-2511.25,-3885.0,1181.25,-132.24,-3.04,-226.48
334460.1309,466.65,-122.732,914.207,-796.25,-3115.0,1653.75,-130.72,-4.56,-228.0
334460.1809,458.72,-114.192,915.183,-2065.0,-3631.25,1006.25,-138.32,-16.72,-223.44
334460.2309,458.11,-122.671,915.976,-1041.25,-3473.75,848.75,-142.88,12.16,-211.28
334460.2809,453.84,-114.741,919.026,-980.0,-4130.0,910.0,-121.6,4.56,-218.88
334460.3309,455.06,-121.39,921.771,-918.75,-3640.0,385.0,-126.16,-9.12,-223.44
334460.3809,449.814,-113.704,919.758,-761.25,-4453.75,-568.75,-138.32,-12.16,-229.52
334460.4309,456.707,-110.227,921.832,-1373.75,-4313.75,-201.25,-130.72,3.04,-221.92
334460.4809,450.851,-112.667,920.429,-1828.75,-4628.75,402.5,-139.84,-12.16,-240.16
334460.5309,453.901,-111.508,917.562,-1942.5,-4847.5,428.75,-152.0,-4.56,-240.16
334460.5809,453.413,-115.839,920.917,-1260.0,-4427.5,962.5,-135.28,-4.56,-241.68
334460.6309,456.097,-112.911,915.854,-1828.75,-5171.25,708.75,-133.76,-6.08,-221.92
334460.6809,453.23,-119.194,914.573,-2703.75,-5810.0,1706.25,-130.72,-9.12,-218.88
334460.7309,466.833,-120.902,919.697,883.75,-3080.0,778.75,-129.2,-7.6,-238.64
334460.7809,439.139,-106.933,920.063,-1452.5,-2870.0,437.5,-123.12,-9.12,-240.16
334460.8309,445.483,-122.427,920.673,-2248.75,-5040.0,560.0,-129.2,-15.2,-234.08
334460.8809,453.291,-125.05,922.198,-1041.25,-4602.5,1592.5,-129.2,-9.12,-223.44
334460.9309,442.372,-118.035,917.135,-1076.25,-5486.25,1417.5,-126.16,16.72,-237.12
334460.9809,460.794,-124.013,920.734,-1461.25,-5110.0,962.5,-136.8,-6.08,-237.12
334461.0309,447.679,-117.852,918.233,-796.25,-4576.25,901.25,-139.84,1.52,-228.0
334461.0809,448.533,-119.438,919.392,-1286.25,-5661.25,131.25,-132.24,12.16,-226.48
334461.1309,464.332,-116.937,917.989,-630.0,-4681.25,-770.0,-147.44,-4.56,-229.52
334461.1809,452.742,-110.471,920.49,-875.0,-3360.0,-857.5,-138.32,18.24,-232.56
334461.2309,446.093,-107.604,918.721,-1960.0,-4917.5,-673.75,-133.76,0.0,-214.32
334461.2809,452.681,-116.205,922.076,-1295.0,-4523.75,761.25,-132.24,-7.6,-228.0
334461.3309,445.544,-113.399,921.771,-971.25,-4200.0,1277.5,-121.6,-3.04,-231.04
334461.3809,446.154,-112.301,921.222,-1890.0,-5188.75,1216.25,-123.12,4.56,-229.52
334461.4309,452.925,-112.179,920.917,-1960.0,-5171.25,726.25,-120.08,-3.04,-231.04
334461.4809,455.365,-128.1,921.649,-1251.25,-4970.0,568.75,-124.64,-18.24,-228.0
334461.5309,448.228,-101.26,919.758,-2178.75,-4445.0,105.0,-136.8,3.04,-226.48
334461.5809,445.483,-115.412,920.246,-2966.25,-4480.0,358.75,-142.88,-3.04,-224.96
334461.6311,444.995,-120.658,922.137,-1198.75,-4733.75,2021.25,-124.64,-7.6,-237.12
334461.6809,444.446,-119.011,919.575,-1111.25,-4672.5,1680.0,-145.92,-4.56,-229.52
334461.731,452.193,-124.928,922.442,-1986.25,-5538.75,997.5,-132.24,-7.6,-232.56
334461.7809,448.655,-115.839,918.111,-1093.75,-4532.5,700.0,-136.8,-4.56,-221.92
334461.8309,445.605,-118.889,920.612,-1715.0,-5302.5,612.5,-132.24,13.68,-235.6
334461.8809,451.461,-122.854,918.904,-831.25,-5293.75,236.25,-115.52,-10.64,-224.96
334461.9309,450.729,-109.312,916.037,-1076.25,-4427.5,-402.5,-133.76,-22.8,-224.96
334461.9809,444.141,-108.824,923.113,-2213.75,-4200.0,-962.5,-129.2,1.52,-237.12
334462.0309,446.093,-119.987,921.405,-1548.75,-5722.5,603.75,-141.36,-6.08,-237.12
334462.0809,450.424,-116.876,922.564,-1347.5,-5512.5,1583.75,-138.32,-13.68,-234.08
334462.1309,448.228,-117.181,919.758,-1321.25,-5127.5,1662.5,-120.08,-6.08,-229.52
334462.1809,450.363,-119.621,917.867,-1785.0,-5040.0,796.25,-133.76,-7.6,-215.84
334462.2309,454.816,-125.172,918.416,-2283.75,-5468.75,236.25,-130.72,-15.2,-231.04
334462.2809,453.84,-106.994,917.928,-113.75,-3771.25,-700.0,-127.68,9.12,-238.64
334462.3309,444.446,-106.994,918.721,-1820.0,-4357.5,-201.25,-132.24,-7.6,-229.52
334462.3809,446.642,-117.059,921.344,-1540.0,-4611.25,1023.75,-107.92,7.6,-238.64
334462.431,450.668,-117.486,923.174,-875.0,-4628.75,1723.75,-120.08,1.52,-226.48
334462.4809,444.446,-116.51,923.723,-2091.25,-5311.25,1251.25,-139.84,-4.56,-244.72
334462.5309,452.986,-122.732,919.819,-595.0,-4121.25,971.25,-117.04,7.6,-234.08
334462.5809,441.274,-115.534,921.222,-1671.25,-3955.0,507.5,-123.12,0.0,-238.64
334462.6309,444.629,-120.841,921.1,-1356.25,-5285.0,332.5,-144.4,9.12,-234.08
334462.6809,447.313,-113.216,922.015,-385.0,-3535.0,-577.5,-132.24,15.2,-214.32
334462.7309,440.664,-103.578,924.76,-1566.25,-4217.5,-1321.25,-147.44,-24.32,-217.36
334462.7809,440.359,-113.399,927.993,-2668.75,-4786.25,52.5,-147.44,3.04,-237.12
334462.8309,440.42,-115.839,922.381,-1190.0,-4716.25,1435.0,-124.64,4.56,-226.48
334462.881,438.407,-113.094,922.442,-1155.0,-5416.25,1461.25,-127.68,-6.08,-232.56
334462.9309,448.167,-113.521,923.357,-1907.5,-5635.0,1023.75,-121.6,3.04,-235.6
334462.9809,446.398,-119.499,918.355,-2371.25,-5066.25,848.75,-129.2,-15.2,-235.6
334463.0309,449.692,-121.268,923.418,350.0,-4033.75,166.25,-135.28,1.52,-235.6
334463.0809,439.993,-109.434,920.917,-2537.5,-4961.25,376.25,-126.16,0.0,-231.04
334463.1309,446.825,-116.754,922.991,-2432.5,-4751.25,691.25,-126.16,6.08,-238.64
334463.1809,445.849,-124.806,925.065,-1793.75,-4558.75,2327.5,-130.72,3.04,-240.16
334463.2309,441.884,-120.475,921.161,-1960.0,-5617.5,1583.75,-132.24,0.0,-246.24
334463.2809,451.644,-124.013,922.198,-1478.75,-4996.25,1303.75,-132.24,1.52,-231.04
334463.3309,436.089,-122.366,922.747,-1776.25,-4917.5,1006.25,-135.28,0.0,-220.4
334463.381,440.847,-124.806,923.601,-1680.0,-5775.0,87.5,-115.52,0.0,-229.52
334463.4309,450.058,-120.78,923.235,-848.75,-4891.25,-822.5,-129.2,6.08,-237.12
334463.4809,441.152,-112.179,922.442,-1601.25,-4366.25,-1303.75,-123.12,0.0,-237.12
334463.5309,441.335,-112.789,922.991,-2152.5,-4786.25,-105.0,-139.84,-3.04,-241.68
334463.581,441.152,-118.584,924.211,-1452.5,-4243.75,1470.0,-136.8,4.56,-240.16
334463.6309,435.845,-121.146,924.638,-840.0,-4961.25,1478.75,-135.28,-12.16,-240.16
334463.6809,441.945,-116.266,923.418,-1723.75,-5582.5,656.25,-139.84,12.16,-240.16
334463.7309,448.35,-122.793,921.405,-2852.5,-5748.75,376.25,-129.2,1.52,-223.44
334463.7809,453.84,-128.71,920.917,-385.0,-4698.75,428.75,-138.32,6.08,-240.16
334463.8309,441.091,-105.225,920.185,-2406.25,-4313.75,533.75,-133.76,10.64,-229.52
334463.8809,441.457,-119.499,926.102,-1645.0,-4182.5,1190.0,-138.32,-16.72,-209.76
334463.9309,439.078,-120.658,925.309,-1671.25,-4383.75,1697.5,-133.76,4.56,-237.12
334463.9809,432.673,-117.547,924.333,-1872.5,-4935.0,1312.5,-130.72,-9.12,-221.92
334464.031,440.481,-126.88,924.15,-1443.75,-5180.0,1505.0,-130.72,-13.68,-220.4
334464.0809,440.176,-119.133,925.919,-1277.5,-4987.5,621.25,-120.08,10.64,-232.56
334464.1309,440.237,-125.111,925.736,-1557.5,-5136.25,-105.0,-117.04,16.72,-241.68
334464.1809,441.396,-119.865,922.625,-595.0,-5512.5,-717.5,-120.08,7.6,-221.92
334464.2309,444.629,-107.299,920.063,-1653.75,-4795.0,-1373.75,-127.68,1.52,-231.04
334464.2809,439.505,-112.301,925.309,-2152.5,-4602.5,-192.5,-117.04,7.6,-235.6
334464.3309,439.749,-117.059,923.052,-1443.75,-5521.25,1365.0,-123.12,3.04,-237.12
334464.3809,450.546,-120.353,923.906,-1058.75,-4375.0,1478.75,-135.28,-4.56,-235.6
334464.4309,433.161,-117.547,928.481,-1032.5,-3937.5,1391.25,-110.96,0.0,-237.12
334464.4809,433.71,-113.643,923.662,-3010.0,-6028.75,446.25,-106.4,-3.04,-226.48
334464.5309,453.596,-130.479,924.76,-1898.75,-5783.75,516.25,-132.24,-4.56,-244.72
334464.5809,438.163,-106.018,922.564,-1408.75,-5005.0,105.0,-138.32,16.72,-221.92
334464.6309,443.287,-119.743,924.089,-2975.0,-4856.25,148.75,-129.2,-16.72,-232.56
334464.6809,445.727,-123.83,925.797,-1855.0,-4322.5,1338.75,-120.08,-6.08,-240.16
334464.7309,427.732,-120.17,928.481,-350.0,-4838.75,1583.75,-135.28,0.0,-228.0
334464.7809,439.444,-118.95,926.712,-2030.0,-5547.5,507.5,-120.08,15.2,-232.56
334464.8309,436.577,-123.342,925.309,-1837.5,-5827.5,122.5,-120.08,13.68,-232.56
334464.8809,444.385,-122.427,921.527,-2117.5,-5775.0,-131.25,-135.28,-10.64,-226.48
334464.9309,447.74,-118.462,919.575,-1408.75,-5845.0,0.0,-129.2,3.04,-231.04
334464.9809,456.585,-108.397,918.721,-1417.5,-3578.75,-472.5,-117.04,1.52,-232.56
334465.0311,440.176,-109.8,926.346,-1548.75,-3762.5,105.0,-124.64,-10.64,-234.08
334465.0809,437.919,-111.325,925.248,-2003.75,-2966.25,787.5,-123.12,-3.04,-237.12
334465.131,436.577,-119.072,926.285,-1942.5,-4742.5,1172.5,-132.24,3.04,-244.72
334465.181,434.381,-120.536,926.285,-1995.0,-4095.0,1925.0,-132.24,-4.56,-241.68
334465.2309,433.405,-118.035,925.614,-1400.0,-5521.25,1303.75,-121.6,9.12,-228.0
334465.2809,456.097,-129.442,921.71,-1400.0,-4436.25,717.5,-135.28,-3.04,-234.08
334465.3309,435.174,-119.987,926.285,-1461.25,-2817.5,385.0,-130.72,15.2,-234.08
334465.3809,427.427,-118.34,929.518,-3141.25,-5145.0,560.0,-129.2,1.52,-234.08
334465.4309,440.054,-128.344,926.407,-1898.75,-4357.5,1225.0,-114.0,3.04,-237.12
334465.4809,431.331,-124.745,927.871,-1373.75,-4121.25,2222.5,-123.12,0.0,-238.64
334465.5309,432.49,-127.795,931.287,-1855.0,-5915.0,1575.0,-126.16,-6.08,-228.0
334465.5809,435.235,-131.15,927.261,-1067.5,-4541.25,1058.75,-110.96,6.08,-232.56
334465.6309,426.451,-129.137,928.298,-1575.0,-6457.5,490.0,-129.2,-3.04,-229.52
334465.6809,443.165,-128.832,924.638,-735.0,-6317.5,-612.5,-121.6,16.72,-246.24
334465.7309,445.3,-119.865,920.734,-306.25,-5495.0,-533.75,-129.2,-7.6,-238.64
334465.7809,438.529,-115.29,921.527,-1776.25,-5258.75,-1260.0,-130.72,4.56,-223.44
334465.8309,438.834,-119.255,924.516,-2213.75,-5530.0,-1233.75,-123.12,3.04,-240.16
334465.8809,440.542,-115.961,922.991,-533.75,-4532.5,586.25,-135.28,-9.12,-231.04
334465.9309,440.237,-115.107,921.283,-2283.75,-6772.5,822.5,-117.04,6.08,-231.04
334465.9809,449.204,-130.784,918.233,-2178.75,-5888.75,866.25,-106.4,7.6,-232.56
334466.0309,453.474,-118.645,922.503,463.75,-3535.0,280.0,-135.28,6.08,-214.32
334466.0809,430.111,-115.778,922.625,-2117.5,-5215.0,306.25,-126.16,7.6,-237.12
334466.1309,445.361,-124.135,925.98,-2117.5,-4637.5,787.5,-120.08,7.6,-231.04
334466.1809,439.688,-123.586,926.163,-1260.0,-4331.25,1408.75,-138.32,1.52,-228.0
334466.2309,431.941,-123.83,930.372,-2135.0,-5363.75,1575.0,-126.16,10.64,-226.48
334466.2809,447.313,-121.695,918.965,-507.5,-5328.75,1478.75,-133.76,3.04,-232.56
334466.3309,436.577,-122.488,922.32,-1295.0,-4217.5,1190.0,-132.24,-4.56,-238.64
334466.3809,434.747,-125.233,927.688,-1172.5,-4891.25,665.0,-123.12,3.04,-226.48
334466.4309,440.847,-124.074,926.895,-358.75,-4830.0,297.5,-120.08,6.08,-232.56
334466.4809,437.37,-114.436,922.93,-673.75,-4838.75,-612.5,-141.36,10.64,-221.92
334466.5309,440.359,-121.329,928.176,-2170.0,-4908.75,-796.25,-127.68,0.0,-231.04
334466.5809,438.956,-122.854,926.407,-1373.75,-4523.75,-96.25,-115.52,0.0,-220.4
334466.6309,434.32,-117.974,924.638,-953.75,-4795.0,717.5,-135.28,4.56,-241.68
334466.6809,440.054,-117.364,923.662,-2318.75,-5083.75,385.0,-141.36,9.12,-234.08
334466.7309,444.263,-128.222,924.211,-2126.25,-5285.0,446.25,-120.08,4.56,-229.52
334466.7811,436.638,-112.179,925.37,-210.0,-3377.5,105.0,-121.6,-7.6,-246.24
334466.8309,432.124,-117.12,926.041,-2152.5,-4882.5,-332.5,-127.68,0.0,-231.04
334466.881,435.967,-121.451,925.065,-1942.5,-5031.25,726.25,-126.16,3.04,-240.16
334466.9309,436.394,-122.183,924.943,-945.0,-4296.25,1513.75,-127.68,7.6,-226.48
334466.9809,438.163,-121.146,925.431,-1662.5,-4900.0,1522.5,-118.56,7.6,-228.0
334467.0309,440.847,-122.061,923.54,-1426.25,-4121.25,918.75,-118.56,-3.04,-229.52
334467.0809,426.451,-122.0,925.858,-1785.0,-4217.5,910.0,-117.04,3.04,-244.72
334467.1309,429.257,-125.233,932.08,-1207.5,-5591.25,726.25,-117.04,4.56,-229.52
334467.1809,439.932,-119.743,926.529,-603.75,-4830.0,-35.0,-118.56,1.52,-226.48
334467.2309,432.307,-110.41,926.59,-2152.5,-5652.5,-463.75,-132.24,-12.16,-241.68
334467.2809,443.714,-116.022,921.527,-3062.5,-4795.0,-96.25,-135.28,-3.04,-234.08
334467.3309,430.965,-121.207,927.322,-595.0,-3718.75,1540.0,-132.24,-9.12,-235.6
334467.3809,425.292,-112.484,929.213,-945.0,-4768.75,1566.25,-135.28,-6.08,-217.36
334467.4309,430.111,-120.719,926.59,-2450.0,-5993.75,1277.5,-129.2,3.04,-240.16
334467.481,446.581,-131.028,926.407,-70.0,-5670.0,691.25,-132.24,10.64,-229.52
334467.5309,436.089,-108.519,925.004,-1373.75,-4961.25,-8.75,-118.56,12.16,-240.16
334467.5809,436.028,-122.0,925.919,-2808.75,-4751.25,323.75,-129.2,-13.68,-241.68
334467.6309,431.026,-125.05,926.895,-1338.75,-4427.5,2003.75,-130.72,15.2,-231.04
334467.6809,430.294,-118.706,928.359,-997.5,-4865.0,1785.0,-121.6,6.08,-228.0
334467.7309,430.599,-133.224,926.956,-1942.5,-5381.25,1128.75,-126.16,-12.16,-238.64
334467.7809,440.603,-126.27,928.847,-638.75,-4830.0,708.75,-127.68,3.04,-228.0
334467.8309,431.026,-125.782,926.224,-2012.5,-5258.75,-61.25,-110.96,12.16,-243.2
334467.8809,443.043,-128.161,924.821,-472.5,-4418.75,-87.5,-150.48,3.04,-231.04
334467.931,437.553,-115.656,924.333,-612.5,-4226.25,-647.5,-118.56,12.16,-234.08
334467.9809,428.464,-117.059,931.104,-1881.25,-4523.75,-1076.25,-115.52,0.0,-229.52
334468.0309,430.416,-119.438,928.176,-1566.25,-5040.0,-43.75,-126.16,3.04,-226.48
334468.0809,431.697,-116.51,925.309,-682.5,-5083.75,1216.25,-120.08,1.52,-224.96
334468.1309,434.503,-116.144,926.712,-1890.0,-5652.5,1330.0,-139.84,-3.04,-244.72
334468.1809,440.298,-120.353,921.527,-2660.0,-6090.0,840.0,-136.8,9.12,-228.0
334468.2309,436.821,-118.889,925.675,8.75,-3920.0,-350.0,-110.96,12.16,-228.0
334468.2809,430.904,-113.643,927.444,-3027.5,-5145.0,-927.5,-135.28,1.52,-240.16
334468.3309,431.819,-123.586,925.858,-2292.5,-5792.5,367.5,-110.96,4.56,-228.0
334468.3809,435.54,-122.244,928.664,-603.75,-4838.75,1925.0,-114.0,6.08,-238.64
334468.4309,426.512,-120.78,929.579,-2248.75,-5801.25,1592.5,-124.64,0.0,-223.44
334468.4809,436.943,-126.819,926.834,-638.75,-5048.75,1023.75,-124.64,6.08,-231.04
334468.5311,430.538,-117.913,929.03,-2021.25,-5670.0,166.25,-126.16,7.6,-235.6
334468.5809,437.736,-128.039,923.357,-1723.75,-6667.5,70.0,-127.68,16.72,-241.68
334468.631,441.396,-120.78,923.54,-236.25,-5136.25,140.0,-123.12,3.04,-232.56
334468.6809,439.017,-111.752,920.978,-1767.5,-4716.25,-997.5,-141.36,0.0,-229.52
334468.7309,437.187,-120.719,926.59,-2135.0,-4882.5,-481.25,-130.72,9.12,-249.28
334468.7809,436.516,-120.536,925.797,-560.0,-4235.0,1093.75,-115.52,6.08,-238.64
334468.8309,428.769,-111.325,925.919,-1382.5,-5355.0,1793.75,-124.64,7.6,-246.24
334468.8809,441.762,-124.562,921.283,-2633.75,-5425.0,1461.25,-117.04,1.52,-234.08
334468.9309,452.01,-134.017,926.346,1461.25,-4033.75,630.0,-123.12,-4.56,-224.96
334468.9809,433.832,-107.421,924.028,-2100.0,-3648.75,-253.75,-123.12,6.08,-240.16
334469.0309,434.32,-126.758,930.006,-2065.0,-4243.75,175.0,-124.64,4.56,-226.48
334469.0809,427.244,-122.061,930.25,-1198.75,-4707.5,1295.0,-141.36,9.12,-235.6
334469.1309,431.27,-120.414,925.98,-1758.75,-6151.25,1330.0,-123.12,13.68,-235.6
334469.1809,440.969,-131.211,929.64,-831.25,-5398.75,910.0,-135.28,12.16,-223.44
334469.2309,437.126,-118.462,922.625,-717.5,-4733.75,595.0,-123.12,6.08,-221.92
334469.2809,436.821,-123.281,924.089,-2205.0,-5801.25,385.0,-120.08,3.04,-229.52
334469.3309,447.618,-127.185,920.795,-866.25,-5285.0,455.0,-123.12,7.6,-238.64
334469.3809,438.407,-114.314,920.185,-988.75,-4812.5,-446.25,-148.96,19.76,-247.76
334469.4309,435.662,-116.632,927.078,-2546.25,-4270.0,-787.5,-126.16,9.12,-249.28
334469.4809,435.235,-119.438,926.102,-1802.5,-4427.5,175.0,-126.16,0.0,-235.6
334469.5309,432.429,-113.094,927.688,-1461.25,-4882.5,813.75,-133.76,-6.08,-224.96
334469.5809,432.978,-118.157,926.59,-2415.0,-5320.0,875.0,-121.6,-4.56,-231.04
334469.6309,442.25,-125.66,925.126,-2590.0,-5600.0,761.25,-136.8,4.56,-240.16
334469.6809,439.383,-120.475,922.503,-743.75,-3902.5,-376.25,-117.04,-3.04,-240.16
334469.7309,430.904,-113.338,928.603,-1968.75,-4410.0,236.25,-127.68,19.76,-223.44
334469.7809,438.041,-127.124,925.797,-2248.75,-4340.0,1111.25,-129.2,-4.56,-235.6
334469.8309,436.516,-124.806,926.712,-910.0,-4515.0,1846.25,-135.28,4.56,-244.72
334469.8809,426.024,-120.841,927.2,-2213.75,-4882.5,1137.5,-120.08,19.76,-226.48
334469.9309,445.91,-132.248,920.795,-1741.25,-5136.25,586.25,-132.24,4.56,-240.16
334469.9809,435.662,-126.453,926.773,-665.0,-3753.75,1137.5,-115.52,16.72,-235.6
334470.0309,436.455,-126.27,927.81,-1741.25,-4803.75,17.5,-112.48,4.56,-217.36
334470.0809,434.076,-122.549,926.834,-1023.75,-4497.5,-332.5,-124.64,15.2,-237.12
334470.1309,430.721,-116.876,929.091,-1391.25,-4383.75,-848.75,-126.16,0.0,-237.12
334470.1809,432.063,-117.364,925.065,-2800.0,-5040.0,-682.5,-115.52,15.2,-231.04
334470.2309,433.1,-127.551,928.359,-2126.25,-4856.25,682.5,-135.28,6.08,-238.64
334470.2811,429.928,-118.95,927.322,-1146.25,-4803.75,1522.5,-124.64,-9.12,-228.0
334470.3309,428.891,-128.161,923.357,-2878.75,-5626.25,673.75,-129.2,19.76,-235.6
334470.381,452.376,-136.518,928.298,-1435.0,-5372.5,105.0,-117.04,1.52,-238.64
334470.4309,425.414,-114.375,925.98,-1295.0,-3517.5,428.75,-132.24,16.72,-234.08
334470.4809,431.026,-126.27,926.041,-2730.0,-4935.0,411.25,-130.72,-7.6,-226.48
334470.5309,431.331,-131.943,929.884,-1680.0,-4488.75,1216.25,-130.72,10.64,-244.72
334470.5809,420.595,-119.255,928.725,-1793.75,-4602.5,498.75,-121.6,9.12,-237.12
334470.6309,429.074,-131.516,927.383,-2590.0,-5486.25,-148.75,-123.12,-13.68,-244.72
334470.681,432.063,-129.381,931.409,-752.5,-5696.25,43.75,-124.64,4.56,-234.08
334470.7309,437.004,-129.015,921.527,-1837.5,-6133.75,-446.25,-110.96,6.08,-232.56
334470.7809,440.237,-129.259,922.991,-770.0,-5967.5,-253.75,-109.44,9.12,-243.2
334470.8309,442.372,-112.789,925.248,-472.5,-4515.0,-735.0,-129.2,3.04,-243.2
334470.8809,433.649,-107.909,925.98,-2432.5,-4436.25,-1793.75,-144.4,6.08,-241.68
334470.9309,432.795,-125.599,928.542,-1697.5,-5127.5,-78.75,-118.56,4.56,-244.72
334470.9809,429.501,-119.682,927.932,-997.5,-5022.5,1137.5,-117.04,-9.12,-238.64
334471.0309,435.235,-111.691,922.503,-2388.75,-6851.25,1268.75,-130.72,-4.56,-241.68
334471.0809,442.494,-128.161,922.686,-2458.75,-7411.25,621.25,-103.36,9.12,-228.0
334471.1309,436.76,-120.78,926.651,-953.75,-3771.25,472.5,-126.16,-10.64,-247.76
334471.1809,418.033,-110.41,927.017,-1085.0,-5311.25,988.75,-112.48,10.64,-226.48
334471.2309,427.488,-117.913,926.895,-3447.5,-7621.25,1995.0,-124.64,0.0,-240.16
334471.2809,442.372,-129.93,929.64,-3911.25,-7140.0,2607.5,-109.44,4.56,-228.0
334471.3309,442.921,-125.172,923.601,-1575.0,-6895.0,2791.25,-120.08,3.04,-228.0
334471.3809,438.041,-136.884,919.941,-2196.25,-7140.0,866.25,-130.72,4.56,-226.48
334471.4309,448.96,-135.054,923.967,-1041.25,-7971.25,1592.5,-121.6,-3.04,-208.24
334471.4809,446.093,-134.444,920.978,201.25,-5591.25,-166.25,-144.4,4.56,-226.48
334471.5309,469.822,-123.647,899.506,-481.25,-11226.25,-463.75,-127.68,9.12,-226.48
334471.5809,458.415,-122.793,909.022,-2205.0,-1863.75,-997.5,-126.16,7.6,-241.68
334471.6309,440.42,-119.499,927.505,-2275.0,-3718.75,-612.5,-135.28,6.08,-221.92
334471.6809,431.758,-125.965,924.333,-1443.75,-4926.25,498.75,-124.64,7.6,-226.48
334471.7309,448.472,-119.682,917.928,-1872.5,-8015.0,612.5,-135.28,0.0,-212.8
334471.7809,450.851,-132.37,917.867,-813.75,-5792.5,927.5,-123.12,-6.08,-237.12
334471.8309,450.79,-127.673,923.174,-1015.0,-6230.0,2301.25,-123.12,-6.08,-229.52
334471.8809,454.511,-118.706,915.0,-131.25,-5022.5,315.0,-141.36,0.0,-220.4
334471.9309,426.817,-118.767,924.394,-1382.5,-5311.25,236.25,-136.8,6.08,-244.72
334471.9809,464.332,-123.403,918.294,-2310.0,-6116.25,-227.5,-126.16,3.04,-229.52
334472.0311,454.755,-124.806,916.098,-1303.75,-4095.0,253.75,-130.72,3.04,-226.48
334472.0809,436.76,-119.926,923.174,-1505.0,-5591.25,525.0,-115.52,22.8,-221.92
334472.131,463.905,-119.072,917.379,-3272.5,-5792.5,-691.25,-141.36,-3.04,-228.0
334472.1809,446.093,-120.963,917.196,-3290.0,-5267.5,-218.75,-141.36,-6.08,-229.52
334472.2309,467.138,-128.161,910.852,-3377.5,-4007.5,-306.25,-127.68,1.52,-221.92
334472.2809,461.465,-123.037,913.109,-1513.75,-2922.5,-735.0,-130.72,13.68,-217.36
334472.3309,462.38,-120.963,916.464,-2616.25,-1820.0,-673.75,-121.6,3.04,-234.08
334472.3809,436.638,-125.355,922.503,-1636.25,-2126.25,665.0,-133.76,-13.68,-218.88
334472.4309,451.583,-135.908,927.078,-1128.75,-1041.25,2126.25,-133.76,12.16,-232.56
334472.4809,436.699,-125.294,914.451,-385.0,-2887.5,2213.75,-130.72,-10.64,-228.0
334472.531,441.152,-125.599,922.198,-2808.75,-4558.75,831.25,-132.24,-15.2,-237.12
334472.5809,450.058,-143.167,928.42,-980.0,-2117.5,-227.5,-123.12,13.68,-237.12
334472.6309,414.007,-125.172,928.786,-752.5,-3850.0,-463.75,-133.76,-7.6,-224.96
334472.6809,433.588,-129.808,925.858,-1960.0,-6300.0,-332.5,-117.04,-6.08,-228.0
334472.7309,444.69,-135.786,928.176,-1041.25,-4961.25,61.25,-118.56,9.12,-228.0
334472.7809,437.126,-126.392,923.357,-1321.25,-6028.75,122.5,-118.56,4.56,-235.6
334472.8309,450.485,-133.712,919.636,-1023.75,-4952.5,192.5,-136.8,4.56,-211.28
334472.8809,438.041,-126.697,924.943,437.5,-4611.25,-166.25,-117.04,7.6,-224.96
334472.9309,440.542,-119.621,924.394,-717.5,-3386.25,-848.75,-126.16,-9.12,-212.8
334472.9809,436.943,-120.17,924.699,-428.75,-3570.0,-1522.5,-124.64,12.16,-234.08
334473.0309,442.86,-109.312,928.847,-778.75,-3272.5,-1513.75,-135.28,0.0,-240.16
334473.0809,430.538,-108.702,932.751,-1303.75,-2143.75,-1163.75,-139.84,7.6,-228.0
334473.1309,425.536,-111.874,933.605,-1793.75,-4681.25,411.25,-118.56,9.12,-237.12
334473.1809,422.974,-107.36,929.762,-1312.5,-4672.5,1837.5,-126.16,0.0,-237.12
334473.2309,431.331,-112.362,928.054,-2336.25,-5127.5,1461.25,-129.2,0.0,-226.48
334473.2809,445.788,-127.063,926.834,-1653.75,-4716.25,1715.0,-132.24,-10.64,-244.72
334473.3309,422.303,-113.826,928.298,-1032.5,-3832.5,962.5,-130.72,3.04,-234.08
334473.3809,424.316,-112.423,930.738,-2808.75,-5101.25,918.75,-123.12,-6.08,-231.04
334473.4309,428.037,-128.161,932.019,-2782.5,-6142.5,1662.5,-126.16,-10.64,-234.08
334473.4809,430.355,-129.076,927.261,-1023.75,-5276.25,1680.0,-118.56,-7.6,-241.68
334473.5309,433.771,-123.159,927.871,-2852.5,-6553.75,1085.0,-145.92,9.12,-231.04
334473.5809,443.043,-131.76,922.503,-2502.5,-5722.5,682.5,-117.04,4.56,-240.16
334473.6309,438.224,-134.017,921.71,-1688.75,-5573.75,1522.5,-101.84,7.6,-229.52
334473.6809,439.81,-130.662,920.124,-726.25,-4681.25,463.75,-120.08,-9.12,-237.12
334473.7309,436.333,-127.49,924.882,-1251.25,-4427.5,-971.25,-120.08,6.08,-237.12
334473.7811,433.405,-123.037,928.42,-1478.75,-4261.25,-1951.25,-115.52,4.56,-238.64
334473.8309,428.952,-129.93,928.542,-2126.25,-4777.5,-1023.75,-127.68,-13.68,-232.56
334473.881,429.074,-120.475,929.396,-630.0,-4471.25,-8.75,-123.12,15.2,-237.12
334473.9309,427.61,-115.107,926.346,-2668.75,-5425.0,113.75,-124.64,-13.68,-234.08
334473.9809,434.137,-129.991,927.932,-2563.75,-5600.0,218.75,-120.08,-6.08,-252.32
334474.0309,436.15,-119.743,928.786,17.5,-3788.75,61.25,-110.96,3.04,-240.16
334474.0809,428.037,-110.227,926.834,-2353.75,-5792.5,148.75,-130.72,10.64,-232.56
334474.1309,433.405,-124.379,925.492,-2196.25,-5985.0,647.5,-120.08,0.0,-231.04
334474.1809,436.699,-123.403,921.527,-577.5,-4480.0,1610.0,-117.04,-12.16,-217.36
334474.2309,438.224,-128.039,925.797,-2100.0,-5950.0,1601.25,-132.24,7.6,-232.56
334474.2809,441.213,-131.882,926.834,-1128.75,-4523.75,1093.75,-132.24,19.76,-247.76
334474.3309,433.771,-127.185,926.834,-1435.0,-5363.75,490.0,-136.8,-10.64,-237.12
334474.3809,436.882,-129.869,929.03,-875.0,-5328.75,-455.0,-115.52,6.08,-224.96
334474.4309,438.956,-117.852,923.54,-805.0,-5232.5,-1163.75,-110.96,0.0,-224.96
334474.4809,440.847,-114.375,923.601,-1890.0,-4917.5,-1242.5,-133.76,-6.08,-235.6
334474.5309,439.627,-120.78,924.333,-2318.75,-4751.25,-70.0,-129.2,18.24,-229.52
334474.581,436.76,-115.717,925.98,-813.75,-4235.0,1540.0,-123.12,-10.64,-231.04
334474.6309,436.76,-114.436,924.089,-2003.75,-4882.5,1627.5,-138.32,-6.08,-244.72
334474.6809,436.15,-133.834,924.882,-1837.5,-6055.0,1645.0,-110.96,9.12,-237.12
334474.7309,442.311,-112.362,926.102,490.0,-2686.25,577.5,-123.12,-3.04,-238.64
334474.7809,423.584,-115.595,926.956,-1373.75,-3500.0,805.0,-115.52,6.08,-224.96
334474.8309,428.464,-120.048,927.2,-2327.5,-4497.5,1286.25,-126.16,-4.56,-229.52
334474.8809,427.793,-126.514,931.287,-1233.75,-4541.25,2493.75,-120.08,1.52,-235.6
334474.9309,424.56,-121.329,929.945,-2336.25,-5372.5,2187.5,-126.16,9.12,-244.72
334474.9809,430.477,-132.065,926.163,-1391.25,-4243.75,1688.75,-123.12,0.0,-228.0
334475.0309,421.998,-129.808,932.873,-1128.75,-4497.5,1767.5,-126.16,0.0,-238.64
334475.0809,425.231,-127.49,930.006,-1662.5,-6195.0,665.0,-115.52,-9.12,-215.84
334475.1309,439.566,-124.928,924.455,-778.75,-5127.5,-437.5,-126.16,0.0,-231.04
334475.1809,432.795,-113.582,927.139,-1216.25,-4576.25,-1487.5,-126.16,-3.04,-249.28
334475.2309,431.331,-120.231,930.311,-2800.0,-4891.25,-1067.5,-132.24,0.0,-223.44
334475.2809,427.61,-127.368,928.847,-1618.75,-5302.5,717.5,-136.8,6.08,-241.68
334475.3309,426.512,-116.327,928.603,-1163.75,-5696.25,1977.5,-115.52,9.12,-235.6
334475.3809,433.222,-124.44,924.272,-2756.25,-5626.25,1785.0,-132.24,4.56,-223.44
334475.4309,446.032,-137.494,928.725,-1251.25,-5293.75,1137.5,-130.72,-3.04,-240.16
334475.4809,428.586,-117.364,926.956,-1251.25,-3622.5,306.25,-115.52,7.6,-240.16
334475.5311,430.416,-123.525,925.614,-2423.75,-5153.75,43.75,-124.64,1.52,-240.16
334475.5809,437.248,-128.588,923.601,-1732.5,-4690.0,840.0,-118.56,16.72,-231.04
334475.631,425.475,-121.695,929.091,-1356.25,-4366.25,1321.25,-118.56,-3.04,-241.68
334475.6809,432.307,-131.211,926.712,-1688.75,-4873.75,1155.0,-126.16,-3.04,-229.52
334475.7309,428.403,-128.1,930.311,-350.0,-4287.5,700.0,-114.0,15.2,-231.04
334475.7809,426.329,-128.222,925.309,-1548.75,-5425.0,-70.0,-118.56,1.52,-235.6
334475.8309,435.601,-129.137,926.285,-910.0,-5486.25,-691.25,-118.56,16.72,-234.08
334475.8809,431.819,-113.094,927.261,-498.75,-4025.0,-1058.75,-115.52,-6.08,-235.6
334475.9309,427.976,-112.667,927.2,-2371.25,-3788.75,-953.75,-112.48,4.56,-240.16
334475.9809,424.133,-123.464,933.544,-1732.5,-4252.5,708.75,-121.6,12.16,-238.64
334476.0309,422.242,-118.706,934.398,-726.25,-4340.0,1706.25,-133.76,4.56,-231.04
334476.0809,419.985,-117.303,931.226,-1846.25,-5713.75,1618.75,-123.12,6.08,-235.6
334476.1309,431.148,-127.368,924.638,-2450.0,-6510.0,1032.5,-114.0,-7.6,-234.08
334476.1809,434.625,-117.73,928.176,-35.0,-4156.25,-236.25,-126.16,-13.68,-232.56
334476.2309,421.571,-111.325,930.86,-2187.5,-4497.5,17.5,-117.04,-3.04,-244.72
334476.2809,429.623,-125.172,926.712,-2362.5,-5416.25,971.25,-120.08,13.68,-252.32
334476.3309,428.952,-127.246,930.799,-1776.25,-4532.5,1837.5,-126.16,9.12,-243.2
334476.3809,422.303,-123.952,928.054,-2231.25,-5538.75,1583.75,-101.84,-3.04,-249.28
334476.4309,430.843,-136.823,926.834,-1452.5,-5346.25,1461.25,-127.68,-3.04,-234.08
334476.4809,430.782,-127.368,926.102,-971.25,-4453.75,1443.75,-129.2,7.6,-243.2
334476.5309,424.499,-133.895,929.335,-1627.5,-5425.0,516.25,-104.88,-6.08,-247.76
334476.5809,431.819,-131.76,924.821,-735.0,-5092.5,-577.5,-123.12,-4.56,-232.56
334476.6309,429.44,-113.155,927.139,-1583.75,-3771.25,-1373.75,-130.72,12.16,-226.48
334476.6809,425.841,-124.806,932.995,-2240.0,-4637.5,-525.0,-118.56,6.08,-232.56
334476.7309,430.172,-125.782,926.834,-1041.25,-4856.25,1470.0,-118.56,10.64,-241.68
334476.7809,423.34,-120.353,929.274,-621.25,-4313.75,1863.75,-126.16,0.0,-229.52
334476.8309,425.78,-122.793,932.934,-1365.0,-5101.25,997.5,-132.24,-13.68,-234.08
334476.881,432.673,-129.747,924.272,-2493.75,-5416.25,875.0,-120.08,12.16,-235.6
334476.9309,428.952,-120.292,928.664,-428.75,-3088.75,-262.5,-130.72,-13.68,-243.2
334476.9809,415.593,-115.839,928.481,-1837.5,-4165.0,350.0,-118.56,10.64,-240.16
334477.0309,423.157,-126.514,932.629,-2126.25,-4392.5,892.5,-129.2,10.64,-232.56
334477.0809,419.802,-128.161,937.326,-1181.25,-4690.0,1863.75,-123.12,6.08,-224.96
334477.1309,415.776,-122.305,928.42,-1837.5,-5276.25,1618.75,-120.08,9.12,-228.0
334477.1809,431.148,-133.651,929.335,-1198.75,-4585.0,1181.25,-118.56,4.56,-241.68
334477.2309,420.29,-127.795,932.08,-1155.0,-4226.25,1312.5,-121.6,-12.16,-231.04
334477.2811,419.924,-134.2,930.982,-1513.75,-5302.5,280.0,-124.64,13.68,-231.04
334477.3309,425.902,-123.586,928.908,-743.75,-4970.0,-297.5,-112.48,15.2,-229.52
334477.381,427.366,-119.987,931.653,-1207.5,-4313.75,-936.25,-126.16,6.08,-240.16
334477.4309,423.035,-123.037,931.531,-2003.75,-4943.75,-96.25,-106.4,13.68,-237.12
334477.4809,423.035,-127.124,930.86,-1470.0,-4838.75,1251.25,-127.68,1.52,-241.68
334477.5309,418.887,-123.708,929.945,-726.25,-4681.25,1408.75,-127.68,4.56,-228.0
334477.581,423.584,-120.963,930.799,-2161.25,-5643.75,813.75,-130.72,10.64,-229.52
334477.6309,431.087,-128.832,928.786,-2345.0,-5390.0,822.5,-120.08,0.0,-238.64
334477.6809,426.268,-122.793,930.86,236.25,-3963.75,96.25,-112.48,19.76,-244.72
334477.7309,420.778,-118.279,931.348,-2765.0,-4856.25,262.5,-129.2,-12.16,-235.6
334477.7809,419.619,-127.551,932.141,-2353.75,-5180.0,560.0,-118.56,7.6,-240.16
334477.8309,425.231,-126.697,932.934,-770.0,-4926.25,1391.25,-132.24,4.56,-238.64
334477.8809,418.765,-121.207,929.457,-2056.25,-5521.25,1680.0,-112.48,6.08,-234.08
334477.9309,435.113,-136.03,930.799,-1391.25,-4777.5,1452.5,-117.04,13.68,-237.12
334477.9809,424.377,-126.88,928.786,-997.5,-4112.5,1688.75,-126.16,6.08,-229.52
334478.031,422.669,-133.956,931.043,-1356.25,-4217.5,691.25,-120.08,-4.56,-234.08
334478.0809,423.767,-126.575,931.531,-603.75,-3937.5,-612.5,-123.12,12.16,-237.12
334478.1309,420.412,-121.756,930.006,-901.25,-3771.25,-630.0,-120.08,-4.56,-231.04
334478.1809,414.617,-120.17,937.326,-2126.25,-3797.5,218.75,-112.48,0.0,-231.04
334478.2309,411.506,-128.71,935.435,-1426.25,-4235.0,1478.75,-107.92,0.0,-235.6
334478.2809,409.92,-124.562,935.252,-1015.0,-4401.25,1207.5,-138.32,13.68,-228.0
334478.3309,414.251,-122.244,936.106,-2021.25,-5757.5,516.25,-129.2,6.08,-238.64
334478.3809,429.196,-135.603,931.104,-1942.5,-5827.5,341.25,-123.12,3.04,-226.48
334478.4309,426.573,-129.869,934.215,1181.25,-3482.5,-323.75,-112.48,7.6,-246.24
334478.4809,403.454,-116.266,937.57,-3045.0,-4620.0,-883.75,-110.96,6.08,-237.12
334478.5309,411.079,-129.869,939.705,-3115.0,-5932.5,-901.25,-126.16,4.56,-238.64
334478.5809,420.839,-133.102,934.703,-857.5,-5722.5,1233.75,-129.2,3.04,-238.64
334478.6309,420.778,-124.013,932.446,-1846.25,-6422.5,761.25,-118.56,-12.16,-229.52
334478.6809,425.353,-132.004,930.128,-1391.25,-6317.5,402.5,-117.04,6.08,-252.32
334478.7309,426.39,-129.686,929.03,-1295.0,-5538.75,621.25,-118.56,3.04,-250.8
334478.7809,421.205,-134.078,928.969,-1198.75,-5635.0,-708.75,-123.12,1.52,-240.16
334478.8309,431.88,-126.026,926.59,-560.0,-5416.25,-2143.75,-112.48,7.6,-238.64
334478.8809,422.669,-118.157,930.982,-1758.75,-4243.75,-2738.75,-127.68,4.56,-235.6
334478.9309,417.545,-120.231,933.91,-1758.75,-5171.25,-1916.25,-114.0,7.6,-231.04
334478.9809,425.231,-123.83,931.958,-1015.0,-4803.75,-665.0,-126.16,3.04,-232.56
334479.0311,426.085,-116.754,929.884,-717.5,-4340.0,-105.0,-120.08,-3.04,-234.08
334479.0809,424.865,-115.534,928.481,-1697.5,-4427.5,157.5,-129.2,1.52,-223.44
334479.131,427.488,-129.198,936.106,-1426.25,-5153.75,726.25,-126.16,0.0,-231.04
334479.1809,432.246,-118.767,932.934,-113.75,-3438.75,-17.5,-133.76,10.64,-238.64
334479.2309,408.395,-114.802,934.032,-1277.5,-4138.75,-52.5,-109.44,6.08,-258.4
334479.2809,415.41,-121.695,935.557,-2878.75,-5057.5,638.75,-112.48,10.64,-243.2
334479.3309,422.12,-122.61,933.91,-1093.75,-4830.0,1321.25,-118.56,-4.56,-253.84
334479.3809,412.909,-121.024,935.496,-2703.75,-5958.75,1933.75,-109.44,-3.04,-228.0
334479.4309,423.706,-124.684,933.3,-1776.25,-5836.25,1513.75,-142.88,-9.12,-235.6
334479.4809,417.179,-126.88,931.897,-1820.0,-5188.75,2362.5,-114.0,6.08,-238.64
334479.5309,423.401,-129.991,935.435,-761.25,-6641.25,490.0,-120.08,7.6,-228.0
334479.5809,431.453,-123.159,927.139,-700.0,-5941.25,-218.75,-126.16,-3.04,-237.12
334479.6309,426.695,-112.972,928.42,-1776.25,-4690.0,-1277.5,-110.96,-3.04,-240.16
334479.6809,422.181,-115.961,931.531,-2336.25,-4751.25,-1050.0,-124.64,-4.56,-241.68
334479.7309,420.473,-122.854,934.154,-1461.25,-4742.5,367.5,-106.4,3.04,-231.04
334479.7809,418.765,-114.558,932.263,-1802.5,-4943.75,787.5,-126.16,19.76,-241.68
334479.8309,421.327,-121.39,930.128,-3928.75,-5888.75,1067.5,-130.72,12.16,-244.72
334479.8809,440.908,-134.627,934.337,262.5,-4891.25,1671.25,-107.92,7.6,-256.88
334479.9309,412.36,-114.192,933.971,-1601.25,-4007.5,1312.5,-114.0,-12.16,-234.08
334479.9809,416.325,-121.878,929.091,-2555.0,-5766.25,26.25,-112.48,1.52,-247.76
334480.0309,426.695,-122.061,930.799,-1347.5,-4917.5,516.25,-117.04,7.6,-228.0
334480.0809,423.462,-121.878,932.446,-2205.0,-4007.5,1601.25,-124.64,15.2,-237.12
334480.1309,419.375,-141.093,934.398,-1128.75,-5871.25,2231.25,-107.92,-6.08,-228.0
334480.1809,428.525,-118.95,930.311,-498.75,-4471.25,1435.0,-133.76,-4.56,-237.12
334480.2309,417.423,-130.845,931.043,-2310.0,-4926.25,656.25,-123.12,10.64,-244.72
334480.2809,424.377,-131.943,932.202,1076.25,-5110.0,70.0,-130.72,24.32,-235.6
334480.3309,429.562,-116.205,928.42,428.75,-4287.5,-17.5,-109.44,13.68,-231.04
334480.3809,419.985,-116.876,935.252,-1767.5,-4655.0,-857.5,-115.52,15.2,-243.2
334480.4309,416.63,-123.586,934.337,-1260.0,-4812.5,52.5,-126.16,-3.04,-232.56
334480.4809,421.449,-114.619,934.154,-350.0,-4646.25,280.0,-117.04,-9.12,-247.76
334480.5309,414.678,-113.826,934.52,-2432.5,-5171.25,1207.5,-112.48,6.08,-226.48
334480.5809,421.51,-128.771,930.921,-2030.0,-5818.75,1426.25,-118.56,3.04,-232.56
334480.6309,434.076,-130.113,930.86,-253.75,-5127.5,1093.75,-126.16,9.12,-234.08
334480.6809,413.885,-111.02,932.751,-1452.5,-4235.0,210.0,-123.12,19.76,-243.2
334480.7309,418.521,-117.608,931.409,-3001.25,-4803.75,-26.25,-118.56,-3.04,-229.52
334480.7811,425.17,-127.49,932.507,-1802.5,-4488.75,1618.75,-126.16,18.24,-235.6
334480.8309,411.14,-123.403,931.47,-1592.5,-4523.75,2310.0,-120.08,9.12,-244.72
334480.881,419.192,-131.882,933.3,-1881.25,-5757.5,2135.0,-118.56,10.64,-249.28
334480.9309,424.987,-127.429,935.557,-420.0,-4593.75,1688.75,-132.24,9.12,-231.04
334480.9809,417.545,-125.843,933.056,-1417.5,-4488.75,875.0,-127.68,7.6,-240.16
334481.0309,422.852,-126.575,931.714,-218.75,-4812.5,-61.25,-129.2,13.68,-234.08
334481.0809,420.778,-116.754,929.64,-708.75,-4340.0,-210.0,-136.8,-9.12,-235.6
334481.1309,414.556,-115.229,936.96,-1408.75,-4025.0,-1111.25,-110.96,9.12,-240.16
334481.1809,411.811,-117.852,932.873,-1898.75,-4025.0,-297.5,-141.36,13.68,-240.16
334481.2309,409.127,-124.257,937.082,-376.25,-4593.75,1137.5,-120.08,9.12,-252.32
334481.2809,411.811,-113.338,935.252,-1181.25,-4707.5,1417.5,-118.56,12.16,-250.8
334481.3309,411.628,-122.854,931.287,-2161.25,-6081.25,1400.0,-123.12,10.64,-237.12
334481.3809,422.669,-129.198,938.729,-638.75,-4760.0,936.25,-117.04,13.68,-229.52
334481.4309,404.186,-110.227,933.727,-1855.0,-4935.0,35.0,-110.96,15.2,-240.16
334481.481,411.75,-121.634,932.934,-2703.75,-6133.75,96.25,-126.16,-3.04,-244.72
334481.5309,421.815,-125.538,935.862,-2082.5,-5853.75,1172.5,-123.12,10.64,-224.96
334481.5809,416.63,-119.072,930.86,-1382.5,-5827.5,2275.0,-110.96,-6.08,-226.48
334481.6309,419.07,-127.673,935.008,-1951.25,-5993.75,1811.25,-136.8,7.6,-224.96
334481.6809,424.194,-121.817,932.08,-1636.25,-5915.0,1312.5,-120.08,7.6,-243.2
334481.7309,422.669,-132.248,929.762,-1592.5,-5302.5,717.5,-110.96,-9.12,-237.12
334481.7809,425.963,-131.821,928.359,-385.0,-5363.75,428.75,-107.92,12.16,-244.72
334481.8309,425.597,-119.743,931.165,-988.75,-3745.0,-927.5,-132.24,-4.56,-241.68
334481.8809,424.804,-119.804,930.616,-1723.75,-3736.25,-1522.5,-129.2,7.6,-243.2
334481.9309,411.567,-121.573,935.984,-1268.75,-3298.75,-516.25,-107.92,-6.08,-235.6
334481.9809,402.905,-120.658,940.071,-883.75,-3981.25,630.0,-123.12,6.08,-235.6
334482.0309,409.981,-114.558,935.069,-1093.75,-5626.25,1330.0,-117.04,18.24,-228.0
334482.0809,414.007,-125.233,935.496,-2546.25,-5748.75,1260.0,-129.2,10.64,-241.68
334482.1309,413.946,-119.316,935.435,166.25,-4033.75,-210.0,-118.56,-6.08,-243.2
334482.1809,408.151,-107.726,935.191,-1933.75,-4978.75,-612.5,-110.96,1.52,-228.0
334482.2309,409.92,-126.026,934.642,-1925.0,-4987.5,140.0,-123.12,-3.04,-228.0
334482.2809,411.018,-123.525,938.424,-358.75,-4690.0,1400.0,-117.04,9.12,-235.6
334482.3309,405.772,-114.314,939.034,-2450.0,-5845.0,945.0,-118.56,4.56,-231.04
334482.3809,419.314,-127.856,932.507,-691.25,-6203.75,122.5,-110.96,4.56,-247.76
334482.4309,420.778,-110.105,932.141,-1478.75,-5302.5,-166.25,-124.64,-10.64,-226.48
334482.4809,419.009,-128.222,933.91,-1697.5,-5845.0,-35.0,-129.2,4.56,-244.72
334482.5311,424.133,-121.573,931.47,-297.5,-5757.5,0.0,-110.96,-4.56,-226.48
334482.5809,424.377,-107.36,931.592,-1933.75,-3902.5,-708.75,-120.08,-3.04,-240.16
334482.631,412.177,-127.002,939.888,-1750.0,-4926.25,-367.5,-109.44,3.04,-232.56
334482.6809,419.375,-119.865,933.971,-227.5,-4567.5,-70.0,-124.64,1.52,-256.88
334482.7309,412.726,-111.569,933.483,-1461.25,-4628.75,-148.75,-120.08,3.04,-244.72
334482.7809,414.983,-116.937,933.605,-1233.75,-5582.5,367.5,-115.52,16.72,-252.32
334482.8309,435.357,-119.804,930.921,-910.0,-4742.5,78.75,-132.24,9.12,-243.2
334482.8809,415.959,-104.31,936.35,-1531.25,-2975.0,-140.0,-115.52,-4.56,-237.12
334482.9309,411.811,-107.787,931.287,-1846.25,-2983.75,560.0,-129.2,15.2,-243.2
334482.9809,409.676,-112.728,945.012,-2275.0,-3657.5,1828.75,-120.08,6.08,-238.64
334483.0309,392.535,-104.066,944.89,-1452.5,-4366.25,2791.25,-121.6,4.56,-243.2
334483.081,407.358,-117.547,940.315,-3211.25,-6588.75,2642.5,-132.24,-9.12,-247.76
334483.1309,411.14,-120.109,937.387,-2108.75,-6020.0,2485.0,-126.16,10.64,-235.6
334483.1809,413.092,-121.573,931.165,-3587.5,-6177.5,2388.75,-124.64,-4.56,-237.12
334483.2309,425.536,-134.017,929.823,-2135.0,-6405.0,533.75,-123.12,13.68,-244.72
334483.2809,425.902,-119.438,932.568,-1636.25,-3972.5,-761.25,-101.84,4.56,-244.72
334483.3309,417.911,-121.695,935.13,-2843.75,-3018.75,-1496.25,-127.68,9.12,-244.72
334483.3809,406.565,-120.841,941.291,-2152.5,-4243.75,-560.0,-121.6,-7.6,-253.84
334483.4309,406.199,-118.462,939.888,-1968.75,-4095.0,621.25,-129.2,15.2,-229.52
334483.4809,405.772,-120.597,938.851,-2695.0,-5678.75,1636.25,-112.48,1.52,-232.56
334483.5309,421.266,-136.701,933.666,-2572.5,-5923.75,1671.25,-110.96,-3.04,-241.68
334483.5809,423.218,-126.453,936.472,-227.5,-3150.0,735.0,-115.52,4.56,-238.64
334483.6309,399.55,-119.743,938.973,-2257.5,-4532.5,866.25,-110.96,3.04,-252.32
334483.6809,402.966,-130.906,934.825,-2222.5,-4628.75,1041.25,-124.64,7.6,-220.4
334483.7309,409.432,-131.699,940.376,-1487.5,-5048.75,2012.5,-112.48,18.24,-235.6
334483.7809,407.541,-133.041,937.753,-2423.75,-5713.75,2065.0,-123.12,3.04,-250.8
334483.8309,417.118,-141.642,933.544,-1032.5,-4943.75,1233.75,-117.04,-9.12,-235.6
334483.8809,404.247,-130.174,935.923,-437.5,-4243.75,586.25,-103.36,19.76,-237.12
334483.9309,419.924,-139.263,936.96,157.5,-5451.25,-1050.0,-107.92,4.56,-259.92
334483.9809,412.543,-121.634,935.74,1435.0,-4305.0,-875.0,-115.52,9.12,-238.64
334484.0309,403.088,-114.192,938.912,-148.75,-4322.5,-1566.25,-114.0,3.04,-244.72
334484.0809,408.517,-111.203,937.814,-1942.5,-4585.0,-1627.5,-110.96,-3.04,-235.6
334484.1309,395.951,-116.815,942.206,-1128.75,-5398.75,0.0,-109.44,9.12,-240.16
334484.1809,406.748,-116.998,936.411,-2301.25,-5748.75,813.75,-98.8,-7.6,-247.76
334484.231,405.223,-123.769,932.263,-2940.0,-5985.0,385.0,-115.52,19.76,-237.12
334484.2809,426.573,-133.712,935.74,-350.0,-4786.25,236.25,-112.48,-4.56,-241.68
334484.3309,400.953,-111.63,938.607,-1338.75,-3998.75,-262.5,-126.16,10.64,-240.16
334484.381,404.247,-116.205,934.703,-2537.5,-5101.25,0.0,-115.52,6.08,-249.28
334484.4309,410.469,-125.111,940.376,-1653.75,-5670.0,1452.5,-133.76,6.08,-237.12
334484.4809,405.65,-125.904,936.533,-980.0,-4935.0,1146.25,-112.48,3.04,-234.08
334484.5309,412.055,-134.078,935.313,-1225.0,-6571.25,175.0,-124.64,0.0,-228.0
334484.5809,414.251,-117.425,933.422,-560.0,-5013.75,-682.5,-135.28,9.12,-231.04
334484.6309,418.216,-122.305,933.727,-1487.5,-5363.75,-875.0,-123.12,24.32,-244.72
334484.6809,416.996,-122.976,933.117,52.5,-5136.25,-988.75,-118.56,6.08,-243.2
334484.7309,415.654,-106.994,933.361,-140.0,-4970.0,-1557.5,-110.96,9.12,-238.64
334484.7809,412.299,-106.628,939.766,-2047.5,-4217.5,-2327.5,-130.72,9.12,-241.68
334484.8309,410.469,-115.229,937.631,-1391.25,-4681.25,-1242.5,-115.52,24.32,-241.68
334484.8809,415.349,-111.081,933.178,-551.25,-4602.5,0.0,-114.0,-9.12,-247.76
334484.9309,415.593,-101.565,933.971,-1820.0,-5118.75,323.75,-118.56,-10.64,-241.68
334484.9809,419.07,-122.183,939.522,-1942.5,-4068.75,1802.5,-109.44,-7.6,-237.12
334485.0309,409.92,-113.46,941.108,428.75,-3246.25,1330.0,-139.84,7.6,-243.2
334485.0809,399.001,-102.175,938.79,-2896.25,-4488.75,586.25,-124.64,6.08,-244.72
334485.1309,401.99,-117.547,938.058,-3526.25,-5206.25,1566.25,-117.04,13.68,-252.32
334485.1809,409.615,-124.501,941.657,-1688.75,-5346.25,2712.5,-126.16,9.12,-232.56
334485.2309,405.04,-117.486,936.899,-2992.5,-5608.75,1951.25,-126.16,-3.04,-229.52
334485.2809,411.14,-126.697,938.241,-2590.0,-5547.5,1041.25,-129.2,9.12,-247.76
334485.3309,404.735,-118.523,936.594,-1732.5,-5976.25,1225.0,-127.68,-7.6,-241.68
334485.3809,406.382,-121.817,936.655,-2791.25,-6335.0,1662.5,-103.36,1.52,-229.52
334485.4309,413.763,-120.963,934.459,-1085.0,-7280.0,857.5,-103.36,3.04,-240.16
334485.4809,410.774,-118.218,936.228,-1776.25,-6098.75,708.75,-107.92,7.6,-244.72
334485.5309,404.064,-124.318,936.96,-1662.5,-6956.25,-315.0,-114.0,-10.64,-253.84
334485.5809,427.854,-122.183,933.483,-962.5,-4410.0,568.75,-118.56,-3.04,-249.28
334485.6309,400.892,-116.022,938.119,-2642.5,-7157.5,-332.5,-127.68,-9.12,-244.72
334485.6809,422.242,-125.172,932.812,-3998.75,-7192.5,-262.5,-107.92,6.08,-240.16
334485.7309,439.444,-129.686,927.871,-1601.25,-10377.5,157.5,-124.64,15.2,-237.12
334485.7809,430.416,-121.695,932.873,-892.5,-5591.25,-262.5,-132.24,3.04,-249.28
334485.831,412.116,-105.286,901.519,-2703.75,-7743.75,595.0,-127.68,9.12,-231.04
334485.8809,426.878,-121.756,933.178,-3570.0,-5477.5,743.75,-129.2,4.56,-234.08
334485.9309,432.49,-132.675,928.054,-717.5,-5206.25,1531.25,-127.68,13.68,-224.96
334485.9809,437.126,-119.743,924.577,-1750.0,-4208.75,1452.5,-114.0,9.12,-247.76
334486.0309,410.652,-123.22,932.385,-2686.25,-5626.25,498.75,-132.24,0.0,-235.6
334486.0809,416.813,-127.307,931.897,-1732.5,-7070.0,1417.5,-118.56,4.56,-228.0
334486.131,436.211,-121.329,923.113,-770.0,-8137.5,1513.75,-117.04,12.16,-221.92
334486.1809,433.283,-123.098,926.346,-1128.75,-6991.25,1356.25,-112.48,-6.08,-235.6
334486.2309,429.684,-117.852,928.542,-131.25,-5565.0,953.75,-112.48,3.04,-223.44
334486.2809,425.17,-114.192,939.888,-3508.75,-4121.25,533.75,-112.48,3.04,-223.44
334486.3309,426.817,-128.283,933.483,-1242.5,-6580.0,568.75,-126.16,1.52,-229.52
334486.3809,441.213,-115.534,922.015,-2896.25,-7805.0,253.75,-147.44,1.52,-226.48
334486.4309,450.241,-126.331,915.732,-4278.75,-5486.25,402.5,-117.04,13.68,-238.64
334486.4809,451.705,-128.344,927.017,-1513.75,-1225.0,157.5,-101.84,9.12,-240.16
334486.5309,399.306,-106.689,939.278,-3972.5,-4576.25,-901.25,-123.12,9.12,-234.08
334486.5809,436.089,-124.074,928.115,-6011.25,-4348.75,-385.0,-117.04,13.68,-231.04
334486.6309,421.022,-151.951,930.372,-3158.75,-5425.0,1295.0,-133.76,15.2,-217.36
334486.6809,424.804,-142.801,925.98,-542.5,-5775.0,2765.0,-109.44,10.64,-247.76
334486.7309,434.869,-134.993,925.309,-840.0,-2231.25,2633.75,-120.08,6.08,-228.0
334486.7809,438.59,-142.313,920.917,-1618.75,-5057.5,1338.75,-110.96,16.72,-226.48
334486.8309,422.791,-142.557,925.248,-1452.5,-2948.75,770.0,-127.68,22.8,-237.12
334486.8809,444.385,-133.224,930.616,-87.5,-4453.75,-560.0,-127.68,10.64,-235.6
334486.9309,420.717,-128.649,925.248,8.75,-1723.75,-1268.75,-112.48,25.84,-243.2
334486.9809,433.161,-134.993,926.346,-2485.0,-3307.5,-630.0,-120.08,12.16,-240.16
334487.0309,427.061,-133.895,930.067,-236.25,463.75,507.5,-115.52,10.64,-249.28
334487.0809,412.97,-126.331,933.056,-586.25,-262.5,420.0,-103.36,6.08,-223.44
334487.1309,412.421,-132.919,935.496,-1933.75,-2135.0,105.0,-98.8,6.08,-237.12
334487.1809,407.358,-138.104,942.938,1181.25,-2476.25,-901.25,-95.76,16.72,-244.72
334487.2309,399.794,-122.732,935.801,-1583.75,-3010.0,-1076.25,-117.04,6.08,-234.08
334487.2809,400.282,-128.832,940.681,-2003.75,-2905.0,-1566.25,-112.48,7.6,-238.64
334487.3309,395.219,-128.771,940.986,-2493.75,-5136.25,-350.0,-109.44,6.08,-241.68
334487.3809,400.16,-135.054,935.191,-752.5,-4016.25,560.0,-104.88,12.16,-240.16
334487.4309,403.393,-134.261,940.559,-481.25,-5477.5,420.0,-107.92,7.6,-246.24
334487.4809,405.223,-129.442,938.729,-218.75,-5670.0,78.75,-130.72,-4.56,-240.16
334487.5309,408.212,-129.076,937.326,402.5,-5346.25,-245.0,-109.44,10.64,-241.68
334487.5809,409.127,-126.331,936.106,385.0,-6448.75,-752.5,-107.92,0.0,-246.24
334487.6309,415.166,-120.17,933.117,297.5,-5197.5,-1487.5,-112.48,-4.56,-246.24
334487.6809,410.225,-115.412,936.716,-52.5,-3990.0,-2625.0,-114.0,21.28,-241.68
334487.7309,407.358,-113.643,940.132,-700.0,-4348.75,-2896.25,-123.12,7.6,-244.72
334487.7809,405.894,-109.556,940.254,-1548.75,-4830.0,-1916.25,-118.56,-7.6,-238.64
334487.8309,404.308,-110.776,936.35,-1793.75,-5635.0,-848.75,-104.88,-4.56,-244.72
334487.881,415.288,-118.584,942.023,-1487.5,-5757.5,-673.75,-130.72,-3.04,-241.68
334487.9309,408.273,-106.201,934.459,-1373.75,-4987.5,-61.25,-132.24,3.04,-238.64
334487.9809,405.711,-108.214,934.581,-1750.0,-5372.5,962.5,-126.16,0.0,-240.16
334488.0309,411.384,-117.425,936.594,-1557.5,-5512.5,2135.0,-112.48,-9.12,-229.52
334488.0809,407.541,-114.009,933.849,-1583.75,-4978.75,2397.5,-112.48,10.64,-234.08
334488.131,411.445,-120.231,938.424,-2152.5,-5250.0,1531.25,-115.52,-3.04,-249.28
334488.1809,406.992,-121.878,939.339,-1435.0,-4436.25,805.0,-118.56,-7.6,-246.24
334488.2309,402.539,-119.438,936.045,-1811.25,-5783.75,770.0,-138.32,9.12,-238.64
334488.2809,418.46,-121.207,937.082,-1242.5,-5066.25,-420.0,-109.44,3.04,-238.64
334488.3309,410.774,-109.8,936.167,-700.0,-4961.25,-822.5,-126.16,6.08,-243.2
334488.3809,409.554,-107.787,934.276,-2318.75,-4453.75,-1146.25,-126.16,7.6,-244.72
334488.4309,409.615,-117.608,939.217,-1706.25,-4506.25,70.0,-107.92,9.12,-247.76
334488.4809,406.321,-108.214,934.703,-2012.5,-5083.75,761.25,-126.16,1.52,-244.72
334488.5309,408.029,-118.828,936.96,-2948.75,-5258.75,1330.0,-109.44,13.68,-243.2
334488.5809,418.948,-128.161,941.23,262.5,-4795.0,1137.5,-118.56,3.04,-232.56
334488.6309,403.393,-105.103,935.801,-840.0,-4331.25,840.0,-107.92,3.04,-258.4
334488.6809,409.493,-114.07,935.923,-3088.75,-5293.75,691.25,-110.96,9.12,-238.64
334488.7309,409.615,-124.379,940.742,-1216.25,-5083.75,1986.25,-126.16,15.2,-249.28
334488.7809,403.088,-113.521,933.117,-1242.5,-5092.5,2301.25,-100.32,-3.04,-238.64
334488.8309,412.482,-130.357,936.594,-1400.0,-4628.75,2108.75,-115.52,0.0,-238.64
334488.8809,409.31,-120.231,937.875,-376.25,-4130.0,1408.75,-115.52,-6.08,-241.68
334488.9309,403.515,-126.575,937.814,-2170.0,-5285.0,1093.75,-106.4,0.0,-232.56
334488.9809,420.9,-124.867,935.008,157.5,-4733.75,218.75,-130.72,-10.64,-241.68
334489.0309,410.042,-112.057,936.899,-280.0,-3745.0,-245.0,-115.52,1.52,-255.36
334489.0809,406.199,-111.691,939.095,-2196.25,-4777.5,-1155.0,-115.52,-13.68,-226.48
334489.1309,404.491,-117.608,941.779,-1741.25,-4200.0,-26.25,-112.48,3.04,-240.16
334489.1809,398.696,-114.741,941.352,-840.0,-5145.0,1636.25,-106.4,-3.04,-241.68
334489.2309,410.225,-117.486,935.252,-2423.75,-5267.5,1776.25,-112.48,6.08,-247.76
334489.281,419.558,-130.906,940.193,-1216.25,-5013.75,1557.5,-112.48,-9.12,-243.2
334489.3309,401.624,-105.042,939.278,-1111.25,-2817.5,542.5,-124.64,0.0,-234.08
334489.3809,400.404,-118.462,939.4,-3018.75,-5626.25,638.75,-97.28,3.04,-238.64
334489.4309,405.162,-123.891,938.302,-1382.5,-5075.0,1960.0,-123.12,-10.64,-252.32
334489.4809,397.476,-115.107,938.241,-1846.25,-5355.0,2275.0,-107.92,15.2,-253.84
334489.5309,408.334,-129.259,936.167,-2170.0,-5845.0,1785.0,-115.52,6.08,-237.12
334489.5809,412.421,-127.612,939.827,-568.75,-4401.25,1496.25,-129.2,-6.08,-253.84
334489.6311,397.537,-127.429,939.278,-1723.75,-5477.5,35.0,-104.88,4.56,-250.8
334489.6809,413.275,-127.917,938.302,-490.0,-5582.5,-446.25,-112.48,1.52,-253.84
334489.731,406.321,-111.447,938.485,-1023.75,-4830.0,-1295.0,-117.04,10.64,-244.72
334489.7809,405.345,-111.996,938.241,-2187.5,-5048.75,-1723.75,-117.04,-3.04,-240.16
334489.8309,408.334,-121.817,938.668,-2038.75,-4803.75,43.75,-121.6,4.56,-241.68
334489.8809,397.537,-114.741,939.217,-621.25,-4261.25,1233.75,-112.48,6.08,-238.64
334489.9309,401.441,-112.301,940.498,-1750.0,-5862.5,1653.75,-117.04,-3.04,-238.64
334489.9809,415.471,-129.686,937.143,-1793.75,-5372.5,1575.0,-103.36,9.12,-237.12
334490.0309,407.968,-108.092,938.485,-227.5,-2948.75,507.5,-97.28,-9.12,-247.76
334490.0809,392.474,-107.97,938.546,-2318.75,-4436.25,-577.5,-109.44,-4.56,-244.72
334490.1309,406.443,-124.867,939.461,-2135.0,-4585.0,218.75,-107.92,1.52,-258.4
334490.1809,403.454,-118.279,942.023,-1181.25,-4200.0,1373.75,-112.48,0.0,-238.64
334490.2309,401.563,-120.841,939.034,-2660.0,-5486.25,1785.0,-109.44,0.0,-241.68
334490.2809,404.918,-127.002,941.413,-332.5,-4462.5,1793.75,-114.0,3.04,-249.28
334490.3309,398.696,-116.083,939.888,-1120.0,-4366.25,875.0,-118.56,3.04,-234.08
334490.3809,409.249,-126.087,937.936,-1583.75,-5512.5,-700.0,-103.36,4.56,-231.04
334490.431,413.336,-117.181,938.058,-157.5,-3998.75,-665.0,-132.24,3.04,-226.48
334490.4809,394.365,-104.31,943.06,-1890.0,-3815.0,-1041.25,-98.8,-6.08,-237.12
334490.5309,393.084,-118.096,943.975,-2047.5,-4996.25,367.5,-121.6,-15.2,-234.08
334490.5809,399.001,-116.266,944.89,-796.25,-5110.0,1321.25,-112.48,-3.04,-250.8
334490.6309,392.23,-108.763,941.047,-1881.25,-5740.0,1085.0,-117.04,3.04,-243.2
334490.6809,408.944,-127.612,941.962,-2450.0,-5967.5,1767.5,-112.48,-6.08,-241.68
334490.7309,411.689,-122.488,940.925,148.75,-4278.75,1015.0,-104.88,10.64,-243.2
334490.7809,387.167,-104.676,942.023,-2528.75,-4620.0,-148.75,-114.0,-3.04,-255.36
334490.8309,397.903,-117.12,940.071,-3622.5,-5670.0,271.25,-112.48,1.52,-249.28
334490.8809,403.332,-127.978,943.487,-1312.5,-4725.0,2152.5,-104.88,9.12,-234.08
334490.9309,389.363,-117.486,940.925,-2887.5,-6098.75,1960.0,-115.52,-7.6,-237.12
334490.9809,406.138,-133.59,938.424,-2520.0,-6483.75,1505.0,-106.4,9.12,-244.72
334491.0309,398.696,-124.257,939.217,-953.75,-5180.0,1408.75,-112.48,-6.08,-247.76
334491.0809,400.221,-125.66,935.801,-2065.0,-5880.0,472.5,-101.84,4.56,-249.28
334491.1309,410.164,-130.235,937.143,-393.75,-4935.0,-507.5,-101.84,13.68,-235.6
334491.1809,400.892,-110.715,936.472,-2030.0,-4436.25,-997.5,-107.92,9.12,-250.8
334491.2309,400.282,-119.377,941.169,-2931.25,-4497.5,-603.75,-115.52,3.04,-226.48
334491.2809,402.905,-125.05,941.108,-892.5,-4725.0,1382.5,-133.76,4.56,-240.16
334491.3309,398.391,-117.73,939.583,-1181.25,-4270.0,1312.5,-100.32,3.04,-240.16
334491.3811,401.807,-122.732,940.376,-2301.25,-5442.5,1583.75,-97.28,4.56,-240.16
334491.4309,413.092,-135.359,941.413,-1330.0,-4532.5,1531.25,-115.52,10.64,-243.2
334491.481,406.931,-120.109,941.291,-96.25,-2870.0,52.5,-110.96,3.04,-237.12
334491.5309,386.008,-117.364,939.949,-2992.5,-4873.75,-306.25,-112.48,6.08,-235.6
334491.5809,396.012,-126.331,945.378,-1898.75,-4585.0,752.5,-127.68,0.0,-235.6
334491.6309,393.816,-125.477,947.635,-1251.25,-4891.25,1820.0,-106.4,0.0,-247.76
334491.6809,394.731,-130.601,941.413,-2170.0,-6413.75,2047.5,-112.48,15.2,-244.72
334491.7309,405.345,-134.871,942.206,-840.0,-5390.0,1172.5,-118.56,3.04,-247.76
334491.7809,392.779,-127.063,939.705,-1881.25,-5608.75,385.0,-118.56,7.6,-241.68
334491.8309,404.552,-131.455,938.119,-551.25,-5932.5,-910.0,-114.0,19.76,-237.12
334491.8809,411.445,-117.669,936.35,-498.75,-4366.25,-796.25,-117.04,13.68,-252.32
334491.9309,392.169,-115.961,939.156,-1820.0,-4663.75,-936.25,-124.64,6.08,-240.16
334491.9809,397.476,-123.342,940.193,-1330.0,-4742.5,-743.75,-112.48,4.56,-247.76
334492.0309,399.428,-121.878,943.426,-1216.25,-4637.5,971.25,-107.92,12.16,-247.76
334492.0809,392.962,-124.013,942.938,-1575.0,-5661.25,1277.5,-124.64,-6.08,-247.76
334492.1309,400.77,-123.22,937.448,-1435.0,-5617.5,1461.25,-106.4,24.32,-235.6
334492.1809,409.615,-129.259,942.267,-306.25,-3972.5,-245.0,-95.76,9.12,-247.76
334492.2309,386.557,-115.961,944.463,-1470.0,-4471.25,-551.25,-95.76,6.08,-241.68
334492.2809,391.315,-122.976,941.352,-2021.25,-5486.25,-113.75,-115.52,1.52,-243.2
334492.3309,400.282,-123.464,944.402,-1137.5,-4926.25,1120.0,-120.08,6.08,-258.4
334492.3809,395.768,-122.427,937.814,-1207.5,-5206.25,1303.75,-100.32,7.6,-237.12
334492.4309,405.833,-131.272,937.265,-1251.25,-6011.25,1347.5,-109.44,0.0,-250.8
334492.4809,405.345,-118.95,938.119,-393.75,-4226.25,656.25,-126.16,7.6,-256.88
334492.5309,398.513,-121.939,939.766,-1925.0,-5118.75,78.75,-103.36,13.68,-255.36
334492.5809,403.393,-125.477,940.071,-358.75,-4620.0,-708.75,-115.52,1.52,-244.72
334492.6309,404.308,-112.911,938.851,96.25,-4217.5,-1513.75,-101.84,10.64,-237.12
334492.6809,399.733,-110.532,938.119,-2843.75,-3867.5,-1837.5,-98.8,9.12,-237.12
334492.7309,398.574,-118.889,944.646,-1776.25,-3622.5,17.5,-117.04,1.52,-234.08
334492.7809,390.766,-112.484,949.16,-778.75,-2546.25,918.75,-100.32,9.12,-244.72
334492.8309,379.176,-115.9,947.879,-2292.5,-5416.25,726.25,-107.92,3.04,-255.36
334492.8809,397.659,-129.442,941.962,-2555.0,-6326.25,1023.75,-120.08,-9.12,-255.36
334492.9309,407.48,-126.087,931.775,-280.0,-4156.25,-446.25,-103.36,15.2,-240.16
334492.9809,390.827,-119.56,944.219,-2458.75,-2581.25,-1540.0,-127.68,1.52,-247.76
334493.0309,379.786,-121.39,948.794,-2318.75,-3386.25,-586.25,-117.04,15.2,-247.76
334493.0809,388.143,-127.49,951.417,-936.25,-5031.25,787.5,-124.64,13.68,-253.84
334493.1309,383.995,-117.425,945.561,-1863.75,-6510.0,918.75,-120.08,1.52,-250.8
334493.181,400.099,-125.111,945.439,-1627.5,-6571.25,-350.0,-103.36,9.12,-241.68
334493.231,396.378,-114.985,938.302,-1828.75,-5320.0,-805.0,-124.64,7.6,-244.72
334493.2809,394.487,-121.451,942.145,-1890.0,-5801.25,-612.5,-101.84,9.12,-252.32
334493.3309,400.892,-117.242,940.864,-901.25,-5162.5,-621.25,-124.64,19.76,-250.8
334493.3809,398.696,-112.85,942.145,-1846.25,-4611.25,-1277.5,-104.88,7.6,-249.28
334493.4309,395.951,-112.85,944.463,-2065.0,-4576.25,-1942.5,-109.44,0.0,-238.64
334493.4809,391.315,-117.669,945.744,-1802.5,-4908.75,175.0,-115.52,3.04,-241.68
334493.5309,387.838,-117.608,943.792,-1172.5,-5145.0,1006.25,-106.4,3.04,-240.16
334493.5809,396.195,-115.778,946.964,-1916.25,-5678.75,848.75,-117.04,6.08,-228.0
334493.631,404.003,-127.734,942.023,-1995.0,-5810.0,708.75,-107.92,1.52,-250.8
334493.6809,400.831,-119.499,941.291,288.75,-4252.5,-17.5,-101.84,10.64,-240.16
334493.7309,391.071,-115.534,942.755,-2572.5,-5232.5,-297.5,-104.88,6.08,-232.56
334493.7809,395.585,-124.013,942.328,-1583.75,-5241.25,516.25,-103.36,6.08,-244.72
334493.8309,390.888,-121.512,949.648,-743.75,-4777.5,945.0,-98.8,-9.12,-243.2
334493.8809,392.901,-123.22,944.402,-1820.0,-6483.75,446.25,-127.68,9.12,-232.56
334493.9309,401.99,-127.612,943.67,-140.0,-5626.25,428.75,-103.36,1.52,-240.16
334493.9809,396.439,-111.325,944.28,-1688.75,-5810.0,245.0,-126.16,3.04,-250.8
334494.0309,399.916,-124.257,941.169,-262.5,-6072.5,-332.5,-91.2,1.52,-250.8
334494.0809,405.345,-109.556,938.912,131.25,-5372.5,-525.0,-117.04,9.12,-259.92
334494.1309,402.6,-102.907,938.729,-2257.5,-5031.25,-1907.5,-118.56,0.0,-232.56
334494.1809,405.162,-115.229,941.779,-1828.75,-4287.5,-1058.75,-112.48,6.08,-249.28
334494.2309,399.611,-107.299,945.744,-481.25,-4847.5,-761.25,-124.64,-4.56,-234.08
334494.2809,391.864,-102.663,941.84,-2555.0,-5827.5,-183.75,-104.88,7.6,-243.2
334494.3309,403.881,-109.434,941.352,-1627.5,-5556.25,323.75,-112.48,-4.56,-243.2
334494.3809,412.604,-112.728,940.132,-2012.5,-5416.25,717.5,-123.12,4.56,-244.72
334494.4309,401.685,-106.75,932.69,-1076.25,-2791.25,1181.25,-106.4,-12.16,-247.76
334494.4809,395.219,-105.469,943.487,-1758.75,-3360.0,1706.25,-127.68,12.16,-234.08
334494.5309,391.864,-116.571,944.646,-2738.75,-3832.5,2170.0,-110.96,9.12,-244.72
334494.5809,391.986,-119.316,946.842,-1207.5,-3377.5,2301.25,-107.92,-7.6,-252.32
334494.6309,387.045,-117.852,947.086,-2196.25,-5118.75,1741.25,-100.32,10.64,-255.36
334494.6809,394.243,-122.549,948.611,-1417.5,-4768.75,1207.5,-114.0,1.52,-238.64
334494.7309,385.337,-122.0,948.855,-1015.0,-5950.0,1636.25,-117.04,9.12,-246.24
334494.781,401.502,-117.852,944.89,-1408.75,-6431.25,-306.25,-97.28,15.2,-250.8
334494.8309,397.903,-113.887,940.376,-1330.0,-6107.5,-1216.25,-101.84,-6.08,-261.44
334494.8809,399.001,-105.042,942.084,-2021.25,-5232.5,-866.25,-112.48,4.56,-244.72
334494.9309,400.648,-119.438,941.352,-2143.75,-5162.5,315.0,-121.6,7.6,-244.72
334494.9811,396.988,-115.778,945.195,-525.0,-5311.25,1618.75,-124.64,-12.16,-244.72
334495.0309,404.613,-111.63,941.169,-1968.75,-6028.75,1207.5,-124.64,1.52,-228.0
334495.081,409.31,-129.442,941.596,-1085.0,-5941.25,1128.75,-115.52,0.0,-249.28
334495.1309,411.018,-112.484,937.631,910.0,-3745.0,568.75,-117.04,-3.04,-238.64
334495.1809,395.829,-108.031,939.461,-2467.5,-4348.75,140.0,-106.4,-3.04,-240.16
334495.2309,400.587,-121.024,942.45,-1916.25,-4173.75,743.75,-117.04,0.0,-255.36
334495.2809,396.073,-111.142,946.354,-866.25,-4138.75,1618.75,-114.0,1.52,-241.68
334495.3309,390.827,-123.586,941.535,-2572.5,-6177.5,1968.75,-118.56,-10.64,-249.28
334495.3809,408.029,-121.024,936.899,61.25,-5057.5,1662.5,-112.48,10.64,-247.76
334495.4309,386.984,-108.519,947.879,-1540.0,-3946.25,1592.5,-115.52,0.0,-255.36
334495.4809,382.104,-124.196,949.343,-1653.75,-5906.25,1417.5,-112.48,3.04,-232.56
334495.5309,401.624,-113.46,943.487,761.25,-6580.0,647.5,-106.4,13.68,-253.84
334495.5809,396.134,-100.65,938.607,-2362.5,-5355.0,-1251.25,-120.08,0.0,-247.76
334495.6309,397.659,-111.203,941.901,-2362.5,-5521.25,-910.0,-117.04,15.2,-244.72
334495.6809,398.33,-112.911,943.914,-1015.0,-4506.25,560.0,-109.44,3.04,-247.76
334495.7309,396.012,-104.798,939.644,-2030.0,-5293.75,621.25,-112.48,-15.2,-246.24
334495.7809,397.781,-113.216,943.06,-2633.75,-5127.5,656.25,-107.92,-7.6,-240.16
334495.8309,409.127,-121.329,941.779,-595.0,-4725.0,131.25,-123.12,6.08,-243.2
334495.8809,399.672,-103.578,943.609,-1093.75,-3351.25,-43.75,-106.4,0.0,-244.72
334495.9309,392.413,-108.946,945.073,-2511.25,-5503.75,472.5,-115.52,10.64,-247.76
334495.9809,392.84,-114.375,944.829,-1583.75,-5328.75,1758.75,-118.56,9.12,-244.72
334496.0309,387.411,-114.192,944.28,-1172.5,-5013.75,1636.25,-107.92,7.6,-252.32
334496.0809,400.404,-125.294,941.352,-1251.25,-5740.0,1750.0,-118.56,0.0,-243.2
334496.1309,402.173,-120.536,940.803,-192.5,-4917.5,1321.25,-104.88,10.64,-244.72
334496.1809,396.744,-119.438,941.779,-1155.0,-5153.75,883.75,-104.88,-6.08,-247.76
334496.2309,407.358,-114.619,940.559,140.0,-4611.25,-87.5,-127.68,7.6,-255.36
334496.2809,393.999,-104.92,943.914,78.75,-3561.25,-735.0,-118.56,18.24,-237.12
334496.3309,389.729,-101.626,948.367,-1706.25,-4996.25,-1137.5,-117.04,-4.56,-237.12
334496.3809,390.522,-105.286,948.916,-2003.75,-5853.75,-166.25,-115.52,10.64,-244.72
334496.4309,391.01,-104.92,946.171,-1093.75,-6063.75,831.25,-117.04,21.28,-252.32
334496.4809,400.953,-105.774,941.169,-1898.75,-6772.5,805.0,-121.6,10.64,-244.72
334496.5309,402.417,-110.715,938.973,-2327.5,-6518.75,498.75,-103.36,-13.68,-237.12
334496.5809,415.898,-114.375,937.265,-43.75,-4436.25,297.5,-110.96,9.12,-252.32
334496.6309,394.487,-105.286,939.888,-2450.0,-4777.5,297.5,-124.64,0.0,-253.84
334496.6809,404.186,-114.985,938.729,-2336.25,-4558.75,910.0,-112.48,1.52,-241.68
334496.7309,399.367,-119.987,941.901,-1443.75,-4865.0,1872.5,-114.0,12.16,-240.16
334496.7809,396.744,-112.728,940.193,-1408.75,-4646.25,1163.75,-117.04,10.64,-252.32
334496.831,403.332,-124.196,942.45,-988.75,-5013.75,1260.0,-109.44,-3.04,-253.84
334496.8809,395.402,-111.813,940.071,-988.75,-4585.0,1067.5,-109.44,12.16,-256.88
334496.9309,403.088,-119.621,939.766,-840.0,-4812.5,656.25,-107.92,-12.16,-252.32
334496.9809,402.051,-109.617,940.803,26.25,-4515.0,-8.75,-120.08,15.2,-238.64
334497.0309,408.822,-101.382,939.888,-1242.5,-2870.0,-735.0,-126.16,0.0,-243.2
334497.0809,386.862,-109.312,947.025,-1408.75,-3237.5,-542.5,-101.84,3.04,-249.28
334497.1309,384.239,-110.715,951.051,-542.5,-3456.25,936.25,-127.68,1.52,-247.76
334497.1809,375.211,-106.262,952.942,630.0,-4235.0,1942.5,-110.96,-12.16,-253.84
334497.2309,394.243,-96.563,941.779,-2808.75,-6457.5,1496.25,-109.44,15.2,-249.28
334497.2809,397.049,-123.22,947.513,-1855.0,-5897.5,1321.25,-107.92,21.28,-252.32
334497.3309,397.659,-104.554,943.304,-1190.0,-4865.0,420.0,-118.56,-7.6,-255.36
334497.3809,391.254,-109.007,941.413,-3430.0,-6020.0,280.0,-100.32,15.2,-252.32
334497.4309,396.073,-123.159,943.121,-2161.25,-5591.25,1592.5,-115.52,-3.04,-232.56
334497.4809,399.428,-113.765,942.023,-831.25,-5040.0,1207.5,-103.36,10.64,-249.28
334497.5309,395.707,-123.464,947.269,-2738.75,-6151.25,253.75,-104.88,3.04,-228.0
334497.5809,405.528,-121.268,941.535,-831.25,-5600.0,577.5,-118.56,0.0,-241.68
334497.6309,396.561,-111.142,940.925,-2826.25,-5188.75,533.75,-95.76,6.08,-241.68
334497.6809,395.341,-125.111,943.243,-2773.75,-6037.5,-122.5,-112.48,-10.64,-246.24
334497.7309,408.822,-116.693,938.485,-385.0,-5250.0,-822.5,-107.92,12.16,-261.44
334497.7809,402.783,-105.103,935.618,-2607.5,-4567.5,-2143.75,-101.84,-7.6,-262.96
334497.8309,402.539,-112.911,945.256,-2362.5,-4235.0,-1548.75,-127.68,16.72,-231.04
334497.8809,393.572,-112.24,942.023,-8.75,-4296.25,1050.0,-107.92,1.52,-253.84
334497.9309,388.326,-103.212,945.683,-2117.5,-5652.5,813.75,-110.96,-3.04,-244.72
334497.9809,399.245,-114.253,942.45,-2721.25,-5573.75,-105.0,-98.8,10.64,-256.88
334498.0309,406.321,-116.449,940.559,-315.0,-4891.25,-603.75,-104.88,3.04,-241.68
334498.0809,395.402,-103.395,939.339,-1575.0,-3710.0,8.75,-112.48,19.76,-250.8
334498.1309,402.539,-109.434,941.901,-2747.5,-4357.5,8.75,-114.0,1.52,-241.68
334498.1809,389.363,-119.377,946.781,-1260.0,-2695.0,1977.5,-118.56,-3.04,-253.84
334498.231,373.93,-109.617,951.966,-1400.0,-4453.75,2073.75,-124.64,7.6,-247.76
334498.2809,389.302,-122.549,947.818,-2108.75,-6370.0,1198.75,-132.24,1.52,-259.92
334498.3309,393.999,-119.438,943.487,-2038.75,-6772.5,1190.0,-107.92,9.12,-241.68
334498.3809,407.602,-118.34,934.032,-2292.5,-5783.75,280.0,-114.0,6.08,-241.68
334498.4309,405.223,-121.268,941.352,-1225.0,-4445.0,-507.5,-114.0,10.64,-252.32
334498.4809,396.439,-112.606,943.914,-1461.25,-4287.5,-1505.0,-103.36,1.52,-259.92
334498.5309,391.925,-113.46,945.927,-2458.75,-4663.75,-1373.75,-110.96,-4.56,-255.36
334498.581,391.986,-119.377,942.084,-1846.25,-5372.5,-131.25,-112.48,7.6,-241.68
334498.6309,398.757,-113.826,940.559,-1242.5,-5390.0,673.75,-114.0,7.6,-250.8
334498.681,395.158,-115.473,937.57,-2852.5,-5022.5,428.75,-118.56,7.6,-247.76
334498.7309,399.916,-127.917,946.293,-2257.5,-5267.5,-113.75,-94.24,-3.04,-246.24
334498.7809,395.707,-107.726,941.84,-717.5,-2555.0,-8.75,-107.92,12.16,-238.64
334498.8309,378.688,-113.582,950.624,-2782.5,-4506.25,52.5,-112.48,-6.08,-241.68
334498.8809,381.982,-120.902,947.025,-1977.5,-6291.25,603.75,-112.48,-9.12,-261.44
334498.9309,394.121,-115.473,946.659,-1102.5,-5293.75,1225.0,-103.36,6.08,-244.72
334498.9809,391.437,-119.865,940.681,-1872.5,-6632.5,1067.5,-103.36,-9.12,-237.12
334499.0309,400.953,-120.658,947.269,-1522.5,-5810.0,1137.5,-118.56,0.0,-241.68
334499.0809,392.169,-124.806,938.973,-1041.25,-7507.5,945.0,-100.32,1.52,-250.8
334499.1309,409.737,-121.146,941.352,-323.75,-7210.0,-306.25,-112.48,10.64,-244.72
334499.1809,402.051,-108.824,938.973,-140.0,-6536.25,-1732.5,-120.08,4.56,-249.28
334499.2309,408.029,-100.772,940.376,-1855.0,-6142.5,-2152.5,-127.68,-9.12,-249.28
334499.2809,401.502,-118.828,940.803,-1478.75,-5136.25,-1286.25,-92.72,1.52,-256.88
334499.3309,401.929,-97.6,942.877,-726.25,-4707.5,253.75,-118.56,-3.04,-249.28
334499.381,402.905,-101.992,942.572,-2310.0,-5390.0,-280.0,-109.44,4.56,-255.36
334499.4309,399.794,-118.645,938.546,-1662.5,-6886.25,26.25,-123.12,-6.08,-241.68
334499.4809,411.445,-106.872,936.045,-1653.75,-3220.0,586.25,-130.72,7.6,-247.76
334499.5309,388.448,-114.68,940.376,-1531.25,-4523.75,1058.75,-117.04,6.08,-258.4
334499.5809,397.72,-116.876,942.938,-1881.25,-4051.25,1155.0,-133.76,-10.64,-256.88
334499.6309,401.014,-121.634,944.402,-1347.5,-4681.25,297.5,-100.32,9.12,-238.64
334499.6809,397.659,-115.717,941.718,-3981.25,-5565.0,-35.0,-112.48,-6.08,-249.28
334499.7309,404.186,-124.623,945.195,-148.75,-5215.0,-393.75,-109.44,-9.12,-241.68
334499.7809,397.415,-107.36,937.265,-700.0,-5757.5,455.0,-107.92,-12.16,-237.12
334499.831,408.883,-116.144,939.095,-1505.0,-5766.25,271.25,-114.0,-4.56,-253.84
334499.8809,407.907,-118.035,938.79,-262.5,-4873.75,-481.25,-104.88,-7.6,-240.16
334499.9309,405.955,-97.722,937.692,-1400.0,-4812.5,-1505.0,-123.12,16.72,-240.16
334499.9809,410.896,-108.031,936.045,-2957.5,-4208.75,-1408.75,-115.52,3.04,-238.64
334500.0309,403.454,-115.229,941.657,-1198.75,-4033.75,385.0,-118.56,1.52,-246.24
334500.0809,399.855,-100.04,939.461,-1828.75,-4576.25,1758.75,-124.64,10.64,-246.24
334500.1309,395.585,-108.824,936.899,-2913.75,-5013.75,1636.25,-118.56,-9.12,-256.88
334500.1809,409.92,-126.148,941.596,-1933.75,-4900.0,1312.5,-112.48,-3.04,-240.16
334500.2309,391.742,-104.615,940.376,-586.25,-3097.5,1102.5,-112.48,0.0,-249.28
334500.2809,390.888,-104.92,944.951,-2493.75,-4873.75,1321.25,-123.12,-12.16,-247.76
334500.3311,393.755,-122.366,943.67,-1487.5,-5696.25,2161.25,-103.36,-3.04,-247.76
334500.3809,398.147,-113.582,937.326,-892.5,-5687.5,2196.25,-106.4,-9.12,-240.16
334500.4309,404.552,-120.231,935.801,-2082.5,-5495.0,1828.75,-101.84,1.52,-252.32
334500.4809,403.576,-115.473,945.988,-568.75,-4357.5,1260.0,-114.0,-4.56,-249.28
334500.5309,392.291,-113.094,944.707,-1688.75,-4637.5,1120.0,-138.32,16.72,-247.76
334500.5809,394.243,-122.427,942.206,-822.5,-6763.75,166.25,-109.44,9.12,-256.88
334500.6309,404.491,-100.65,938.363,-1216.25,-5993.75,-936.25,-117.04,19.76,-258.4
334500.6809,407.663,-105.347,938.485,-3622.5,-6037.5,-1321.25,-104.88,1.52,-249.28
334500.7309,403.332,-120.109,939.339,-1548.75,-4917.5,612.5,-114.0,-6.08,-250.8
334500.7809,398.879,-106.079,945.561,-980.0,-5118.75,1093.75,-107.92,9.12,-243.2
334500.8309,401.502,-111.508,939.888,-2327.5,-6370.0,490.0,-124.64,-4.56,-244.72
334500.8809,411.506,-124.013,938.973,-1837.5,-6396.25,1085.0,-120.08,0.0,-250.8
334500.9309,414.922,-118.035,937.814,385.0,-4672.5,726.25,-115.52,3.04,-252.32
334500.981,402.295,-104.798,938.546,-2266.25,-4996.25,148.75,-109.44,-3.04,-240.16
334501.0309,403.637,-119.499,939.156,-1951.25,-5433.75,1146.25,-114.0,4.56,-252.32
334501.0809,407.785,-122.183,940.437,-988.75,-5320.0,1688.75,-118.56,7.6,-240.16
334501.1309,402.966,-118.828,936.777,-1610.0,-5206.25,1190.0,-107.92,6.08,-250.8
334501.1809,406.565,-124.318,941.047,-586.25,-5127.5,603.75,-101.84,-3.04,-237.12
334501.2309,399.184,-115.351,938.363,-1198.75,-5250.0,691.25,-114.0,6.08,-224.96
334501.2809,413.031,-118.828,937.082,-463.75,-5775.0,-122.5,-107.92,-6.08,-238.64
334501.3309,410.408,-111.264,936.228,-157.5,-5276.25,-1023.75,-126.16,3.04,-241.68
334501.3809,404.125,-102.541,940.254,-1837.5,-4900.0,-1723.75,-103.36,1.52,-240.16
334501.4309,407.053,-110.044,940.498,-1758.75,-5057.5,-568.75,-120.08,-15.2,-256.88
334501.4809,408.822,-109.373,938.18,-743.75,-5372.5,866.25,-118.56,-12.16,-247.76
334501.5309,404.552,-102.358,938.058,-1820.0,-5258.75,962.5,-109.44,4.56,-226.48
334501.5809,408.761,-106.811,936.899,-2213.75,-5477.5,455.0,-114.0,-9.12,-249.28
334501.6309,421.693,-120.475,939.644,-875.0,-4025.0,437.5,-117.04,9.12,-244.72
334501.6809,398.452,-97.112,941.718,-2397.5,-3622.5,-35.0,-112.48,-3.04,-231.04
334501.7309,397.354,-108.946,939.888,-2922.5,-4865.0,840.0,-120.08,-7.6,-244.72
334501.7809,404.247,-114.314,942.084,-2248.75,-5092.5,2056.25,-120.08,10.64,-240.16
334501.8309,401.746,-114.253,941.23,-1837.5,-4830.0,1505.0,-121.6,3.04,-241.68
334501.8809,410.408,-125.599,939.522,-2266.25,-5425.0,1636.25,-107.92,18.24,-240.16
334501.9309,398.635,-118.584,942.267,-1137.5,-4593.75,997.5,-124.64,4.56,-252.32
334501.9809,404.125,-121.939,940.559,-1443.75,-5941.25,752.5,-136.8,1.52,-238.64
334502.0309,409.737,-115.9,937.082,-507.5,-5040.0,-638.75,-106.4,6.08,-255.36
334502.0811,408.395,-106.201,934.093,-1181.25,-4305.0,-1067.5,-121.6,-9.12,-241.68
334502.1309,402.173,-110.837,939.949,-2248.75,-4497.5,-358.75,-106.4,10.64,-249.28
334502.181,398.696,-113.155,942.633,-1837.5,-4803.75,691.25,-124.64,-7.6,-235.6
334502.2309,400.892,-113.216,944.707,-1321.25,-4882.5,1382.5,-110.96,15.2,-234.08
334502.2809,400.953,-111.996,937.143,-2292.5,-6326.25,1522.5,-129.2,6.08,-237.12
334502.3309,420.412,-118.462,936.777,-2196.25,-5862.5,1548.75,-129.2,-19.76,-247.76
334502.3809,415.349,-112.606,934.276,70.0,-4068.75,428.75,-110.96,6.08,-232.56
334502.4309,402.539,-112.118,939.095,-2782.5,-4436.25,105.0,-117.04,1.52,-241.68
334502.4809,404.308,-115.595,938.912,-2143.75,-4576.25,1006.25,-124.64,10.64,-238.64
334502.5309,404.735,-122.488,945.378,-1531.25,-4585.0,1688.75,-114.0,-3.04,-252.32
334502.5809,401.563,-118.462,937.936,-1977.5,-5556.25,1583.75,-114.0,-4.56,-238.64
334502.6309,412.177,-124.745,936.167,-1120.0,-5285.0,1251.25,-98.8,16.72,-255.36
334502.6809,401.502,-121.207,940.254,-1662.5,-4523.75,1050.0,-123.12,-3.04,-247.76
334502.7309,405.772,-125.05,937.997,-1128.75,-5302.5,498.75,-110.96,6.08,-261.44
334502.7809,405.223,-115.29,940.681,-778.75,-3885.0,-787.5,-123.12,4.56,-243.2
334502.8309,395.463,-109.312,945.683,-2248.75,-4270.0,-1522.5,-114.0,9.12,-250.8
334502.8809,399.55,-113.399,944.219,-1706.25,-4795.0,-411.25,-106.4,-7.6,-247.76
334502.9309,397.598,-113.826,940.986,-945.0,-5267.5,1251.25,-121.6,-6.08,-246.24
334502.9809,400.16,-110.654,937.204,-1478.75,-5320.0,1706.25,-103.36,10.64,-238.64
334503.0309,407.236,-112.179,940.132,-2196.25,-5153.75,918.75,-110.96,-3.04,-246.24
334503.0809,407.602,-128.771,947.025,-481.25,-3605.0,420.0,-101.84,12.16,-252.32
334503.1309,392.779,-101.443,944.585,-551.25,-4103.75,218.75,-95.76,1.52,-240.16
334503.1809,399.489,-114.619,940.193,-3080.0,-5687.5,280.0,-121.6,-12.16,-258.4
334503.2309,397.293,-120.292,943.914,-1277.5,-4690.0,2371.25,-120.08,12.16,-244.72
334503.2809,389.18,-115.412,943.487,-1085.0,-4856.25,1723.75,-114.0,3.04,-247.76
334503.3309,404.796,-128.283,936.838,-1802.5,-6002.5,1137.5,-109.44,7.6,-243.2
334503.3809,405.162,-120.231,941.352,-603.75,-4751.25,1085.0,-114.0,4.56,-252.32
334503.4309,397.842,-122.061,937.57,-1715.0,-5460.0,96.25,-123.12,6.08,-249.28
334503.4809,413.824,-118.767,936.655,-236.25,-4488.75,-358.75,-112.48,15.2,-244.72
334503.5309,407.419,-110.471,939.034,-857.5,-3377.5,-1260.0,-110.96,-19.76,-240.16
334503.5809,398.208,-112.972,942.206,-1977.5,-3263.75,-743.75,-107.92,13.68,-252.32
334503.6309,395.646,-115.656,944.89,-997.5,-3465.0,980.0,-97.28,0.0,-259.92
334503.6809,393.084,-108.641,946.049,-988.75,-4033.75,1443.75,-115.52,4.56,-247.76
334503.7309,394.304,-112.972,943.609,-1907.5,-5538.75,1190.0,-107.92,10.64,-249.28
334503.7809,401.929,-114.558,940.925,-1872.5,-4908.75,971.25,-114.0,7.6,-249.28
334503.831,398.208,-115.351,942.511,-35.0,-3228.75,-131.25,-112.48,4.56,-252.32
334503.8809,386.557,-110.349,943.975,-2738.75,-4497.5,236.25,-101.84,12.16,-255.36
334503.931,388.509,-118.096,945.134,-1863.75,-4812.5,1085.0,-110.96,7.6,-253.84
334503.9809,392.596,-121.756,949.892,-1846.25,-5136.25,2205.0,-110.96,9.12,-241.68
334504.0309,387.594,-120.414,943.304,-2082.5,-5801.25,2047.5,-112.48,3.04,-234.08
334504.0809,399.306,-124.196,942.511,-1233.75,-5048.75,1268.75,-127.68,4.56,-240.16
334504.1309,390.583,-125.355,942.267,-2065.0,-5556.25,630.0,-115.52,3.04,-247.76
334504.1809,400.709,-127.734,941.962,-1128.75,-5993.75,157.5,-118.56,3.04,-246.24
334504.2309,402.783,-115.168,938.485,-717.5,-4707.5,-1487.5,-98.8,3.04,-258.4
334504.2809,401.807,-105.835,940.315,-1732.5,-3902.5,-1767.5,-114.0,21.28,-247.76
334504.3309,390.156,-113.155,946.598,-1566.25,-3963.75,113.75,-95.76,-4.56,-237.12
334504.3809,393.328,-115.473,944.646,-778.75,-4637.5,1846.25,-91.2,3.04,-249.28
334504.431,393.45,-109.556,942.328,-1172.5,-4191.25,1715.0,-109.44,-12.16,-238.64
334504.4809,392.718,-114.497,939.278,-1942.5,-4812.5,866.25,-112.48,1.52,-237.12
334504.5309,403.393,-129.808,947.452,-1058.75,-4042.5,183.75,-107.92,6.08,-258.4
334504.5809,386.435,-104.615,945.622,-490.0,-3333.75,-105.0,-123.12,21.28,-241.68
334504.6309,380.64,-112.728,945.805,-3001.25,-4935.0,17.5,-110.96,-3.04,-237.12
334504.6809,387.838,-118.95,946.903,-1811.25,-5232.5,927.5,-126.16,-7.6,-237.12
334504.7309,383.507,-116.083,947.269,-1382.5,-4270.0,1277.5,-121.6,10.64,-252.32
334504.7809,390.522,-127.124,941.962,-1653.75,-6098.75,1207.5,-109.44,3.04,-253.84
334504.8309,400.038,-119.743,941.291,-542.5,-4856.25,1443.75,-109.44,12.16,-267.52
334504.8809,382.47,-124.501,946.842,-1811.25,-5057.5,542.5,-101.84,6.08,-247.76
334504.9309,392.718,-124.684,943.487,-1146.25,-6002.5,-525.0,-124.64,13.68,-258.4
334504.9809,397.354,-111.264,940.01,-1155.0,-4296.25,-1443.75,-112.48,7.6,-249.28
334505.0309,389.241,-112.179,946.964,-2485.0,-5355.0,-726.25,-118.56,3.04,-240.16
334505.0809,397.476,-116.754,944.28,-1828.75,-4970.0,1041.25,-107.92,3.04,-249.28
334505.1309,386.862,-113.704,945.927,-726.25,-4515.0,1828.75,-114.0,-4.56,-244.72
334505.1809,395.402,-116.571,943.121,-1995.0,-5460.0,1207.5,-112.48,-9.12,-252.32
334505.2309,401.197,-121.085,937.204,-2196.25,-4506.25,875.0,-112.48,9.12,-241.68
334505.2809,392.169,-116.388,947.94,350.0,-3185.0,-341.25,-95.76,-4.56,-244.72
334505.3309,382.531,-104.432,943.548,-2660.0,-4270.0,-157.5,-106.4,3.04,-258.4
334505.3809,385.215,-122.183,946.72,-1470.0,-4427.5,1137.5,-107.92,6.08,-246.24
334505.4309,388.265,-118.218,948.306,-1802.5,-4830.0,1750.0,-120.08,1.52,-256.88
334505.4809,379.359,-120.597,941.901,-2091.25,-5556.25,1566.25,-104.88,7.6,-241.68
334505.5309,397.903,-128.405,945.744,-280.0,-4506.25,1303.75,-106.4,0.0,-250.8
334505.5809,385.154,-115.412,949.099,-1085.0,-4025.0,752.5,-106.4,12.16,-238.64
334505.6309,385.032,-127.002,947.574,-1697.5,-5967.5,-262.5,-110.96,7.6,-253.84
334505.6811,394.182,-113.948,944.829,-341.25,-4611.25,-1015.0,-114.0,1.52,-253.84
334505.7309,387.411,-108.214,940.071,-1846.25,-4453.75,-1601.25,-115.52,13.68,-256.88
334505.7809,388.143,-116.815,947.452,-1837.5,-5416.25,-35.0,-109.44,4.56,-241.68
334505.8309,386.74,-118.828,945.378,-971.25,-5101.25,2021.25,-114.0,4.56,-253.84
334505.8809,386.252,-112.179,942.694,-1347.5,-5635.0,1776.25,-120.08,1.52,-247.76
334505.9309,396.927,-119.255,943.182,-2345.0,-5573.75,735.0,-114.0,7.6,-238.64
334505.9809,399.306,-126.819,942.084,-1811.25,-4987.5,761.25,-112.48,1.52,-241.68
334506.0309,388.936,-101.87,944.585,-490.0,-3386.25,-848.75,-109.44,-6.08,-237.12
334506.0809,388.936,-116.449,943.792,-2607.5,-4795.0,8.75,-106.4,16.72,-253.84
334506.1309,385.154,-120.414,946.171,-1382.5,-4252.5,1050.0,-98.8,13.68,-262.96
334506.1809,381.616,-116.388,948.611,-945.0,-4156.25,1120.0,-114.0,7.6,-264.48
334506.2309,385.154,-117.852,944.463,-2126.25,-5993.75,1548.75,-114.0,9.12,-256.88
334506.2809,389.973,-121.634,946.659,-542.5,-4777.5,1277.5,-97.28,-12.16,-262.96
334506.3309,385.581,-120.353,944.036,-1636.25,-6151.25,183.75,-106.4,1.52,-247.76
334506.3809,389.851,-123.891,944.341,-901.25,-6378.75,-1023.75,-112.48,1.52,-262.96
334506.4309,391.071,-107.177,943.243,-1365.0,-5390.0,-1968.75,-117.04,-9.12,-252.32
334506.4809,393.755,-108.092,944.341,-2152.5,-5075.0,-1487.5,-120.08,-4.56,-262.96
334506.5309,393.084,-110.41,942.755,-1715.0,-5355.0,936.25,-103.36,-19.76,-238.64
334506.5809,394.06,-116.449,945.866,-927.5,-4506.25,2030.0,-120.08,-10.64,-253.84
334506.6309,380.945,-115.778,950.502,-1207.5,-5127.5,1102.5,-107.92,9.12,-250.8
334506.6809,389.119,-113.216,941.474,-2905.0,-6632.5,52.5,-110.96,1.52,-247.76
334506.7309,395.524,-133.773,948.367,-140.0,-6177.5,8.75,-110.96,1.52,-253.84
334506.7809,394.914,-104.249,942.45,-402.5,-5372.5,17.5,-109.44,15.2,-243.2
334506.8309,391.254,-115.29,942.877,-3176.25,-5381.25,-350.0,-98.8,-9.12,-250.8
334506.8809,393.572,-126.636,943.609,-1986.25,-4445.0,542.5,-104.88,-13.68,-243.2
334506.9309,389.607,-117.486,944.951,-560.0,-5451.25,498.75,-110.96,4.56,-256.88
334506.9809,394.975,-122.427,946.171,-1522.5,-6833.75,-700.0,-126.16,6.08,-243.2
334507.0309,401.014,-119.682,944.829,-533.75,-6545.0,-288.75,-112.48,3.04,-243.2
334507.0809,390.644,-116.937,941.413,-1802.5,-6352.5,-857.5,-118.56,3.04,-247.76
334507.1309,398.635,-122.122,939.766,-1137.5,-7866.25,-1181.25,-109.44,9.12,-240.16
334507.1809,405.528,-103.639,937.753,463.75,-6553.75,-2196.25,-145.92,-4.56,-247.76
334507.2309,400.648,-99.003,937.814,-2143.75,-5670.0,-2756.25,-106.4,-4.56,-247.76
334507.2809,401.075,-111.447,942.45,-1400.0,-5766.25,-1688.75,-100.32,1.52,-246.24
334507.3309,399.184,-107.97,942.328,-428.75,-5136.25,-498.75,-123.12,9.12,-247.76
334507.3809,396.439,-102.48,940.193,-1575.0,-5092.5,-787.5,-107.92,3.04,-247.76
334507.4311,406.565,-104.188,936.838,-1688.75,-5416.25,-577.5,-124.64,-9.12,-261.44
334507.4809,396.561,-113.216,948.123,-507.5,-4646.25,-796.25,-121.6,16.72,-258.4
334507.531,387.289,-100.284,947.513,-1662.5,-7271.25,-1680.0,-121.6,-3.04,-253.84
334507.5809,396.378,-100.101,936.899,-1610.0,-8373.75,-463.75,-136.8,15.2,-253.84
334507.631,424.255,-109.373,938.973,-1417.5,-6886.25,350.0,-109.44,-3.04,-255.36
334507.6809,410.225,-103.456,936.35,-3858.75,-6571.25,568.75,-129.2,-6.08,-240.16
334507.7309,406.016,-119.499,943.304,-341.25,-4751.25,1268.75,-117.04,7.6,-246.24
334507.7809,409.005,-98.637,935.13,-358.75,-6142.5,1330.0,-136.8,-10.64,-226.48
334507.8309,390.461,-111.325,940.071,262.5,-3482.5,630.0,-115.52,-4.56,-238.64
334507.8809,408.944,-98.576,941.23,-2695.0,-1942.5,-822.5,-107.92,-15.2,-243.2
334507.9309,410.347,-94.977,943.487,-840.0,-1925.0,-1198.75,-124.64,-3.04,-249.28
334507.9809,398.086,-109.922,941.657,-3412.5,-4628.75,743.75,-115.52,1.52,-244.72
334508.0309,405.406,-106.75,944.28,-1338.75,-7297.5,2336.25,-115.52,6.08,-238.64
334508.0809,412.665,-104.981,933.605,-1443.75,-8776.25,1408.75,-118.56,-4.56,-250.8
334508.1309,427.61,-115.839,924.15,-1198.75,-6361.25,1706.25,-110.96,9.12,-250.8
334508.1809,407.419,-119.255,930.738,-1330.0,-5442.5,2231.25,-129.2,-6.08,-235.6
334508.2309,399.916,-106.323,943.67,1443.75,-5608.75,-647.5,-115.52,6.08,-261.44
334508.2809,387.167,-97.051,944.768,-2091.25,-5311.25,-866.25,-127.68,3.04,-229.52
334508.331,411.506,-108.397,937.326,-4016.25,-5600.0,-647.5,-124.64,-16.72,-247.76
334508.3809,417.362,-110.227,938.424,-1776.25,-5197.5,-183.75,-115.52,9.12,-235.6
334508.4309,412.787,-107.055,935.374,-3036.25,-4567.5,1225.0,-107.92,-13.68,-240.16
334508.4809,417.789,-118.401,931.592,-2905.0,-2730.0,1321.25,-124.64,7.6,-244.72
334508.5309,398.391,-112.057,945.012,-2520.0,-5530.0,2152.5,-121.6,-12.16,-244.72
334508.5809,416.325,-116.51,937.631,-2817.5,-4086.25,1601.25,-129.2,-9.12,-228.0
334508.6309,425.231,-114.924,938.851,-1400.0,-3762.5,472.5,-114.0,-3.04,-235.6
334508.6809,396.256,-121.817,945.195,525.0,-6378.75,-752.5,-101.84,10.64,-261.44
334508.7309,418.338,-111.935,935.923,-1146.25,-5582.5,218.75,-114.0,-19.76,-247.76
334508.781,393.999,-111.02,943.609,-350.0,-5005.0,-192.5,-100.32,1.52,-253.84
334508.8309,423.889,-109.068,925.37,-1697.5,-2397.5,542.5,-109.44,10.64,-234.08
334508.8809,399.489,-109.983,935.374,17.5,805.0,1146.25,-106.4,7.6,-250.8
334508.9309,395.036,-114.802,948.672,1023.75,1785.0,533.75,-124.64,-9.12,-244.72
334508.9809,367.098,-96.746,954.101,-236.25,-560.0,-612.5,-109.44,-7.6,-250.8
334509.0309,368.684,-96.38,959.835,-1741.25,-4392.5,-1233.75,-109.44,10.64,-250.8
334509.0809,366.244,-91.5,957.883,-2178.75,-6256.25,-481.25,-114.0,-9.12,-241.68
334509.1309,364.658,-89.243,959.652,-2528.75,-8723.75,2415.0,-104.88,12.16,-249.28
334509.1809,393.206,-108.275,951.112,-5792.5,-13247.5,6063.75,-115.52,9.12,-244.72
334509.2309,392.596,-114.253,944.89,-5005.0,-13256.25,7288.75,-114.0,6.08,-244.72
334509.2811,428.769,-137.921,928.42,-3360.0,-9983.75,7358.75,-124.64,7.6,-249.28
334509.3309,424.987,-137.128,925.98,-2502.5,-7446.25,5818.75,-104.88,7.6,-229.52
334509.381,413.214,-131.516,931.836,-2038.75,-6160.0,2178.75,-114.0,-4.56,-235.6
334509.4309,425.719,-130.54,925.248,-2511.25,-4007.5,306.25,-118.56,13.68,-244.72
334509.4809,426.39,-136.274,925.248,-2703.75,-3762.5,175.0,-117.04,-10.64,-235.6
334509.5309,425.353,-127.856,927.322,-166.25,297.5,262.5,-109.44,4.56,-250.8
334509.5809,397.415,-127.612,943.365,-1890.0,717.5,236.25,-103.36,16.72,-241.68
334509.6309,380.945,-130.967,947.635,-2415.0,-2983.75,551.25,-104.88,6.08,-238.64
334509.6809,397.354,-136.945,946.293,393.75,-2415.0,96.25,-110.96,4.56,-247.76
334509.7309,384.849,-121.268,943.304,-455.0,-4296.25,-586.25,-109.44,16.72,-240.16
334509.7809,395.097,-123.464,937.814,-1942.5,-4488.75,61.25,-117.04,1.52,-249.28
334509.8309,396.439,-140.544,944.219,-481.25,-2948.75,2065.0,-121.6,33.44,-237.12
334509.8809,374.662,-131.089,947.879,-253.75,-4978.75,2668.75,-115.52,18.24,-237.12
334509.9309,381.86,-133.102,949.77,-428.75,-7393.75,1067.5,-117.04,3.04,-244.72
334509.9809,391.803,-134.078,944.28,-1338.75,-7323.75,-1076.25,-112.48,4.56,-244.72
334510.0309,403.576,-134.81,935.557,-61.25,-7708.75,-2327.5,-107.92,22.8,-241.68
334510.0809,419.314,-123.83,932.141,393.75,-4348.75,-3202.5,-109.44,3.04,-240.16
334510.1309,412.421,-122.183,931.531,1338.75,-1671.25,-3150.0,-107.92,0.0,-237.12
334510.1809,395.829,-108.885,942.389,665.0,-2642.5,-2003.75,-118.56,-6.08,-246.24
334510.2309,380.762,-105.103,953.796,131.25,-4576.25,-980.0,-110.96,-7.6,-258.4
334510.2809,391.498,-101.565,946.781,-638.75,-5180.0,-717.5,-126.16,-6.08,-246.24
334510.3309,398.086,-100.528,938.302,-1417.5,-6081.25,-498.75,-126.16,9.12,-249.28
334510.3809,417.606,-112.972,940.132,-1461.25,-4637.5,113.75,-123.12,-3.04,-246.24
334510.4309,393.633,-95.343,944.036,-647.5,-3543.75,-428.75,-124.64,10.64,-235.6
334510.4809,393.206,-105.835,943.609,-1846.25,-4383.75,-96.25,-110.96,10.64,-252.32
334510.5309,395.829,-111.203,945.927,-1540.0,-4112.5,568.75,-112.48,-9.12,-249.28
334510.5809,391.681,-101.687,942.511,-708.75,-3911.25,743.75,-114.0,6.08,-250.8
334510.6309,391.437,-108.275,946.72,-1933.75,-4952.5,927.5,-107.92,-4.56,-235.6
334510.6809,392.596,-106.506,948.489,-1435.0,-4261.25,411.25,-109.44,6.08,-241.68
334510.7309,386.557,-107.055,947.147,-2047.5,-6177.5,43.75,-112.48,-4.56,-256.88
334510.7809,396.561,-110.227,944.402,-1636.25,-6256.25,490.0,-129.2,-3.04,-253.84
334510.8309,390.827,-102.114,948.916,-1706.25,-5223.75,-726.25,-109.44,6.08,-261.44
334510.8809,401.075,-99.125,942.328,-3526.25,-7297.5,-953.75,-121.6,-10.64,-249.28
334510.9309,398.513,-115.29,939.827,-2546.25,-6221.25,175.0,-121.6,7.6,-252.32
334510.9809,403.271,-108.092,937.387,-1216.25,-5171.25,953.75,-120.08,-9.12,-250.8
334511.0309,394.609,-106.14,939.644,-1872.5,-5040.0,857.5,-126.16,-7.6,-241.68
334511.0809,401.563,-109.556,938.79,-2432.5,-3736.25,901.25,-114.0,-4.56,-256.88
334511.131,399.977,-103.822,944.524,-376.25,-2826.25,831.25,-109.44,12.16,-247.76
334511.1809,383.568,-96.441,945.805,-1732.5,-2975.0,1111.25,-123.12,7.6,-241.68
334511.2309,392.596,-111.569,942.206,-3281.25,-4506.25,1995.0,-109.44,-7.6,-250.8
334511.2809,391.315,-111.935,951.417,-2572.5,-4550.0,3053.75,-114.0,15.2,-252.32
334511.3309,390.522,-114.68,942.084,-3570.0,-6081.25,3648.75,-98.8,6.08,-249.28
334511.3809,397.354,-126.453,945.866,-2126.25,-5337.5,3036.25,-117.04,12.16,-252.32
334511.4309,392.901,-123.952,945.805,-1907.5,-5171.25,2292.5,-130.72,4.56,-246.24
334511.4809,392.291,-128.954,940.742,-1968.75,-6212.5,533.75,-121.6,-6.08,-259.92
334511.531,406.321,-121.512,937.875,-1391.25,-5853.75,-131.25,-95.76,4.56,-259.92
334511.5809,400.404,-116.876,940.559,-1470.0,-3955.0,-796.25,-121.6,7.6,-250.8
334511.6309,387.594,-118.34,944.097,-2572.5,-3841.25,-577.5,-121.6,0.0,-249.28
334511.6809,388.936,-129.259,945.195,-1785.0,-4060.0,-428.75,-110.96,7.6,-249.28
334511.7309,368.562,-123.098,956.48,-910.0,-6930.0,945.0,-118.56,0.0,-253.84
334511.7809,401.38,-117.059,938.729,-3027.5,-7122.5,-455.0,-117.04,1.52,-252.32
334511.8309,414.678,-131.516,939.4,-1688.75,-6037.5,8.75,-115.52,-3.04,-237.12
334511.8809,399.611,-106.567,938.18,-638.75,-2415.0,-218.75,-118.56,18.24,-240.16
334511.9309,387.472,-112.972,937.875,-2432.5,-4173.75,-691.25,-98.8,3.04,-240.16
334511.9809,398.818,-119.011,943.487,-1163.75,-3123.75,0.0,-112.48,0.0,-247.76
334512.0309,383.202,-110.898,944.707,-1916.25,-3850.0,892.5,-123.12,16.72,-252.32
334512.0809,395.463,-125.233,946.11,-1128.75,-5083.75,1548.75,-109.44,1.52,-258.4
334512.1309,390.827,-110.593,952.271,-735.0,-5136.25,1277.5,-117.04,12.16,-240.16
334512.1809,392.657,-116.144,944.768,-2100.0,-6072.5,297.5,-98.8,4.56,-258.4
334512.2309,406.504,-125.355,937.875,-498.75,-5880.0,420.0,-114.0,-4.56,-259.92
334512.2809,399.794,-103.822,944.402,-1286.25,-2625.0,-752.5,-97.28,3.04,-261.44
334512.3309,380.396,-105.957,945.256,-2336.25,-3762.5,-962.5,-126.16,0.0,-240.16
334512.3809,391.376,-120.658,944.097,-1076.25,-3456.25,726.25,-92.72,4.56,-250.8
334512.4309,381.494,-107.909,950.99,-1067.5,-4130.0,726.25,-106.4,1.52,-258.4
334512.4809,390.4,-108.641,940.62,-2773.75,-4383.75,638.75,-106.4,-4.56,-244.72
334512.5309,392.962,-124.989,944.524,-1951.25,-3858.75,1338.75,-106.4,6.08,-259.92
334512.5809,397.781,-126.697,951.478,-245.0,-1636.25,1163.75,-121.6,16.72,-235.6
334512.6309,353.922,-111.508,957.761,-1015.0,-3491.25,253.75,-104.88,9.12,-256.88
334512.681,374.296,-117.547,957.822,-2318.75,-6107.5,-393.75,-127.68,1.52,-244.72
334512.7309,374.113,-114.802,950.685,-2283.75,-7892.5,350.0,-115.52,22.8,-247.76
334512.7809,394.792,-118.645,941.108,-2572.5,-7822.5,1610.0,-117.04,12.16,-240.16
334512.8309,395.646,-128.71,944.097,-1618.75,-6203.75,1146.25,-106.4,13.68,-247.76
334512.8811,391.132,-116.144,942.084,-1295.0,-5477.5,481.25,-101.84,3.04,-261.44
334512.9309,392.047,-124.318,945.988,-1330.0,-5530.0,-227.5,-112.48,-7.6,-253.84
334512.981,394.853,-122.61,943.609,52.5,-5127.5,-183.75,-110.96,1.52,-252.32
334513.0309,396.805,-104.92,941.23,-1146.25,-5101.25,-761.25,-106.4,12.16,-247.76
334513.0809,392.962,-113.826,942.389,-2843.75,-5022.5,-682.5,-118.56,-13.68,-238.64
334513.1309,391.376,-119.255,941.596,-1548.75,-4611.25,61.25,-95.76,7.6,-247.76
334513.1809,387.289,-110.41,943.975,-1015.0,-4051.25,542.5,-112.48,-9.12,-243.2
334513.2309,384.361,-109.8,945.195,-1863.75,-4777.5,603.75,-115.52,13.68,-243.2
334513.2809,393.45,-122.549,943.792,-2030.0,-5171.25,1312.5,-127.68,1.52,-235.6
334513.3309,395.036,-113.765,947.574,1163.75,-3325.0,927.5,-124.64,7.6,-258.4
334513.381,376.492,-101.077,946.781,-1898.75,-4025.0,-52.5,-112.48,-4.56,-258.4
334513.4309,383.995,-122.183,947.818,-2030.0,-4873.75,341.25,-110.96,-3.04,-253.84
334513.4809,383.324,-121.695,952.82,-1085.0,-4515.0,2257.5,-103.36,6.08,-249.28
334513.5309,377.956,-113.338,946.232,-1146.25,-5442.5,1872.5,-112.48,4.56,-249.28
334513.5809,394.975,-128.527,946.659,-1347.5,-5626.25,735.0,-114.0,9.12,-258.4
334513.6309,386.74,-116.571,947.879,-901.25,-4777.5,341.25,-100.32,1.52,-250.8
334513.6809,388.448,-122.0,944.463,-1120.0,-5626.25,280.0,-121.6,-3.04,-243.2
334513.7309,392.413,-119.682,945.866,-463.75,-5153.75,385.0,-91.2,4.56,-247.76
334513.7809,387.655,-103.09,945.927,-1058.75,-4532.5,-778.75,-114.0,-4.56,-253.84
334513.8309,392.657,-111.813,944.646,-2275.0,-4978.75,-87.5,-117.04,13.68,-241.68
334513.8809,384.3,-121.512,948.794,-1286.25,-4130.0,665.0,-95.76,6.08,-258.4
334513.9309,382.47,-110.105,949.648,-673.75,-4585.0,945.0,-115.52,-3.04,-258.4
334513.9809,387.411,-114.619,947.635,-2528.75,-5188.75,148.75,-104.88,0.0,-241.68
334514.0309,384.239,-121.207,943.731,-1820.0,-6142.5,796.25,-112.48,6.08,-247.76
334514.0809,390.522,-108.519,945.744,140.0,-4392.5,-122.5,-120.08,-6.08,-258.4
334514.1309,382.592,-104.493,945.073,-2520.0,-5048.75,-612.5,-97.28,6.08,-250.8
334514.1809,386.862,-121.39,946.72,-1347.5,-5311.25,577.5,-130.72,10.64,-234.08
334514.2309,389.973,-113.826,947.086,-988.75,-4812.5,1408.75,-103.36,24.32,-269.04
334514.281,381.616,-113.033,944.829,-2003.75,-5521.25,1058.75,-107.92,-4.56,-250.8
334514.3309,391.254,-119.804,944.402,-236.25,-5153.75,805.0,-112.48,18.24,-237.12
334514.3809,387.045,-111.813,945.988,-1443.75,-5180.0,560.0,-103.36,-10.64,-240.16
334514.4309,387.838,-123.098,947.269,-778.75,-5818.75,26.25,-103.36,-3.04,-244.72
334514.4809,395.585,-104.554,943.487,-647.5,-4786.25,-665.0,-109.44,13.68,-253.84
334514.5309,386.191,-105.774,947.269,-2240.0,-4322.5,-1365.0,-114.0,-4.56,-229.52
334514.5809,385.093,-110.776,945.561,-1452.5,-5941.25,-472.5,-118.56,15.2,-250.8
334514.6309,392.779,-110.593,943.548,-1732.5,-5355.0,-8.75,-118.56,4.56,-241.68
334514.6809,392.962,-113.399,943.792,-1023.75,-4523.75,586.25,-107.92,-4.56,-234.08
334514.7311,391.864,-109.251,941.84,-1120.0,-4620.0,332.5,-101.84,4.56,-246.24
334514.7809,391.193,-107.421,945.5,-2327.5,-5180.0,-210.0,-107.92,-7.6,-258.4
334514.831,392.535,-108.336,946.354,350.0,-3290.0,-280.0,-107.92,-12.16,-253.84
334514.8809,382.531,-98.82,949.465,-2485.0,-4646.25,402.5,-104.88,-6.08,-244.72
334514.9309,378.993,-110.349,950.014,-2966.25,-5066.25,1085.0,-118.56,0.0,-256.88
334514.981,391.315,-118.706,949.526,-1172.5,-4681.25,1933.75,-92.72,-13.68,-247.76
334515.0309,379.664,-107.238,946.964,-1995.0,-4970.0,1601.25,-107.92,-3.04,-234.08
334515.0809,389.119,-121.268,950.929,-1636.25,-5328.75,1015.0,-121.6,7.6,-243.2
334515.1309,380.701,-115.168,944.402,-1452.5,-5057.5,612.5,-107.92,25.84,-253.84
334515.1809,385.215,-118.279,946.903,-1750.0,-5827.5,306.25,-120.08,-7.6,-261.44
334515.2309,391.193,-116.022,942.999,-770.0,-5880.0,-262.5,-95.76,6.08,-255.36
334515.2809,388.387,-106.994,944.524,-2135.0,-4760.0,-1111.25,-106.4,12.16,-249.28
334515.3309,386.374,-109.434,947.147,-2563.75,-5398.75,-953.75,-109.44,6.08,-240.16
334515.3809,392.535,-114.314,944.951,-1382.5,-4357.5,402.5,-106.4,9.12,-259.92
334515.431,387.411,-111.325,946.537,-743.75,-4646.25,866.25,-109.44,-4.56,-253.84
334515.4809,384.178,-107.299,947.025,-2730.0,-5328.75,253.75,-107.92,6.08,-261.44
334515.5309,393.145,-120.719,942.999,-2948.75,-6081.25,420.0,-104.88,22.8,-240.16
334515.5809,401.929,-119.682,948.489,-428.75,-4191.25,78.75,-101.84,0.0,-244.72
334515.6309,377.224,-102.785,944.524,-1540.0,-4208.75,420.0,-118.56,1.52,-249.28
334515.6809,389.302,-112.179,948.123,-3333.75,-5092.5,1111.25,-120.08,1.52,-258.4
334515.7309,383.873,-120.231,949.038,-1426.25,-4471.25,2030.0,-115.52,10.64,-247.76
334515.7809,380.762,-114.497,945.805,-2913.75,-5390.0,2432.5,-104.88,13.68,-241.68
334515.8309,387.594,-128.405,946.11,-2126.25,-4935.0,1811.25,-126.16,9.12,-262.96
334515.8809,383.08,-123.037,946.659,-1391.25,-4418.75,1653.75,-103.36,4.56,-255.36
334515.9309,381.616,-124.135,946.171,-1408.75,-5503.75,70.0,-109.44,-10.64,-256.88
334515.9809,393.145,-124.135,946.11,-568.75,-4838.75,-761.25,-112.48,-3.04,-252.32
334516.0309,390.766,-105.652,944.341,-1426.25,-4051.25,-1566.25,-97.28,4.56,-240.16
334516.0809,390.034,-113.704,944.707,-2135.0,-3832.5,-1155.0,-110.96,-6.08,-244.72
334516.1309,384.483,-115.107,949.892,-463.75,-3850.0,577.5,-103.36,13.68,-253.84
334516.1809,375.577,-106.384,948.428,-1636.25,-3920.0,1023.75,-97.28,-7.6,-255.36
334516.2309,377.834,-115.168,950.624,-2563.75,-5372.5,735.0,-124.64,6.08,-244.72
334516.2809,379.786,-124.562,944.768,-1548.75,-5827.5,1067.5,-100.32,12.16,-266.0
334516.3309,397.537,-120.292,949.404,61.25,-4103.75,1137.5,-107.92,-6.08,-255.36
334516.3809,366.305,-111.508,950.563,-1225.0,-4541.25,1163.75,-110.96,6.08,-240.16
334516.4309,383.446,-116.388,947.208,-2677.5,-4585.0,1041.25,-123.12,13.68,-253.84
334516.4809,379.542,-126.026,954.528,-2485.0,-4550.0,1286.25,-110.96,-6.08,-246.24
334516.5309,370.209,-118.767,948.672,-1776.25,-5950.0,1828.75,-92.72,10.64,-250.8
334516.581,386.435,-125.599,946.72,-1137.5,-5871.25,1505.0,-112.48,-3.04,-243.2
334516.6309,381.616,-120.414,947.452,-1111.25,-5416.25,1120.0,-95.76,-6.08,-238.64
334516.6809,382.836,-125.843,947.147,-997.5,-6667.5,148.75,-107.92,0.0,-243.2
334516.7309,394.487,-122.915,945.256,-227.5,-5652.5,-927.5,-110.96,6.08,-249.28
334516.7809,385.764,-105.408,948.489,-962.5,-4200.0,-1802.5,-100.32,9.12,-261.44
334516.8309,384.422,-114.619,951.295,-2170.0,-4786.25,-1190.0,-123.12,-6.08,-250.8
334516.8809,382.653,-114.741,948.306,-630.0,-4663.75,236.25,-112.48,4.56,-259.92
334516.9309,382.409,-111.508,947.208,-603.75,-4987.5,875.0,-110.96,7.6,-246.24
334516.9809,381.189,-106.811,949.16,-1662.5,-5512.5,297.5,-109.44,0.0,-249.28
334517.0309,386.862,-117.303,942.267,-1898.75,-4935.0,463.75,-112.48,10.64,-247.76
334517.0809,390.156,-118.096,948.672,481.25,-3570.0,-52.5,-120.08,7.6,-250.8
334517.1309,377.285,-104.859,947.147,-1233.75,-3517.5,533.75,-104.88,12.16,-250.8
334517.1809,380.762,-109.983,946.903,-2353.75,-4891.25,577.5,-110.96,3.04,-259.92
334517.2309,382.47,-118.401,951.295,-2056.25,-4200.0,656.25,-112.48,-4.56,-241.68
334517.2809,371.734,-110.654,952.576,-1198.75,-4567.5,1505.0,-101.84,9.12,-267.52
334517.3309,385.886,-119.56,948.977,-1242.5,-5416.25,1181.25,-101.84,10.64,-256.88
334517.3809,383.568,-112.911,949.221,-1093.75,-4690.0,743.75,-129.2,13.68,-241.68
334517.4309,379.237,-118.462,945.866,-1828.75,-5827.5,-131.25,-124.64,0.0,-256.88
334517.4809,394.548,-115.534,942.816,-227.5,-4480.0,-1050.0,-106.4,10.64,-258.4
334517.5309,386.374,-100.162,947.696,-752.5,-3395.0,-1163.75,-104.88,-10.64,-250.8
334517.5809,375.028,-104.92,950.136,-2738.75,-4375.0,-61.25,-103.36,-3.04,-255.36
334517.6309,378.2,-115.29,953.857,-1645.0,-4961.25,1408.75,-107.92,7.6,-253.84
334517.6809,377.041,-110.105,951.295,-1583.75,-4908.75,1820.0,-100.32,-7.6,-250.8
334517.731,377.956,-111.752,948.123,-2056.25,-5836.25,1470.0,-114.0,0.0,-255.36
334517.7809,386.618,-112.179,944.585,-2467.5,-5223.75,1321.25,-95.76,3.04,-252.32
334517.8309,393.938,-124.745,950.868,-1093.75,-4322.5,918.75,-98.8,-3.04,-241.68
334517.8809,380.396,-103.761,946.354,-910.0,-3272.5,210.0,-106.4,1.52,-259.92
334517.9309,375.699,-114.375,948.611,-2677.5,-4917.5,-78.75,-101.84,10.64,-266.0
334517.9809,375.394,-116.388,954.589,-2292.5,-4987.5,1172.5,-100.32,1.52,-252.32
334518.0309,376.553,-119.499,951.722,-1671.25,-5433.75,2038.75,-115.52,13.68,-250.8
334518.0809,384.178,-122.488,951.234,-1522.5,-5915.0,2546.25,-124.64,12.16,-252.32
334518.1309,380.091,-117.12,951.661,-997.5,-5066.25,1443.75,-104.88,10.64,-252.32
334518.1809,378.383,-120.841,949.709,-2257.5,-5643.75,183.75,-94.24,1.52,-241.68
334518.2309,386.191,-127.002,945.927,-262.5,-5530.0,-892.5,-115.52,6.08,-243.2
334518.2809,390.705,-110.715,948.367,-245.0,-4392.5,-1015.0,-107.92,13.68,-249.28
334518.3311,376.431,-106.323,949.099,-2345.0,-4287.5,-1330.0,-107.92,3.04,-247.76
334518.3809,379.481,-112.667,951.051,-1015.0,-4996.25,1321.25,-120.08,7.6,-259.92
334518.431,375.211,-110.471,948.55,-1662.5,-5118.75,1303.75,-100.32,1.52,-253.84
334518.4809,376.431,-118.401,949.648,-1146.25,-5363.75,1268.75,-101.84,-7.6,-258.4
334518.5309,383.385,-112.606,948.123,-1365.0,-5530.0,1408.75,-103.36,19.76,-244.72
334518.5809,382.775,-122.793,949.465,-2896.25,-5145.0,866.25,-107.92,-3.04,-252.32
334518.6309,379.969,-109.434,949.038,-358.75,-4322.5,350.0,-109.44,-3.04,-253.84
334518.6809,369.904,-103.456,950.624,-2423.75,-5538.75,-577.5,-89.68,13.68,-255.36
334518.7309,375.028,-120.841,949.221,-2467.5,-5302.5,813.75,-112.48,15.2,-247.76
334518.7809,380.091,-122.122,950.746,-1286.25,-5556.25,2607.5,-109.44,10.64,-240.16
334518.8309,373.747,-118.157,947.025,-2607.5,-5801.25,2292.5,-114.0,-9.12,-243.2
334518.8809,383.873,-125.172,948.428,-1155.0,-5057.5,1697.5,-115.52,-12.16,-246.24
334518.9309,378.444,-117.425,946.476,-1470.0,-4952.5,778.75,-89.68,4.56,-255.36
334518.9809,385.459,-130.784,949.526,-1295.0,-5643.75,-323.75,-110.96,7.6,-259.92
334519.0309,387.167,-115.046,945.134,-437.5,-4961.25,-997.5,-100.32,9.12,-246.24
334519.0809,384.361,-107.604,946.049,-1680.0,-4418.75,-1548.75,-109.44,-3.04,-232.56
334519.1309,379.237,-117.486,947.208,-1618.75,-4838.75,-166.25,-107.92,6.08,-247.76
334519.1809,382.836,-114.009,944.829,-1058.75,-4217.5,656.25,-110.96,15.2,-259.92
334519.2309,377.712,-119.072,949.831,-1303.75,-4313.75,1242.5,-117.04,6.08,-258.4
334519.2809,378.383,-113.277,947.818,-971.25,-4690.0,1181.25,-120.08,4.56,-244.72
334519.3309,379.847,-112.911,946.049,-2345.0,-5022.5,288.75,-115.52,0.0,-256.88
334519.3809,391.62,-124.44,950.746,166.25,-4296.25,-52.5,-107.92,1.52,-258.4
334519.4309,375.211,-104.432,948.245,-1347.5,-3543.75,-35.0,-115.52,19.76,-266.0
334519.4809,376.492,-114.314,950.075,-3176.25,-5442.5,218.75,-112.48,-4.56,-255.36
334519.5309,381.311,-124.196,954.955,-752.5,-4585.0,2283.75,-107.92,-3.04,-266.0
334519.5809,370.209,-115.168,952.881,-1041.25,-4453.75,1610.0,-115.52,-12.16,-235.6
334519.6309,380.823,-127.124,947.391,-1793.75,-6195.0,1277.5,-92.72,-10.64,-253.84
334519.6809,379.481,-117.12,948.916,-1050.0,-4532.5,595.0,-106.4,12.16,-247.76
334519.7309,375.455,-122.854,945.927,-1951.25,-5652.5,61.25,-109.44,12.16,-247.76
334519.7809,391.986,-120.17,946.72,-87.5,-4515.0,-420.0,-100.32,9.12,-247.76
334519.8309,382.287,-107.421,947.391,-708.75,-3456.25,-1338.75,-121.6,13.68,-252.32
334519.8809,371.673,-111.02,951.356,-2318.75,-4532.5,-1006.25,-94.24,6.08,-259.92
334519.9309,380.701,-111.325,949.221,-1242.5,-5407.5,1321.25,-106.4,1.52,-256.88
334519.9809,382.409,-115.778,949.465,-1505.0,-4742.5,2222.5,-110.96,-4.56,-255.36
334520.031,376.37,-116.388,949.831,-1400.0,-5197.5,1610.0,-100.32,3.04,-252.32
334520.0809,381.799,-114.07,946.781,-2152.5,-4821.25,490.0,-110.96,1.52,-241.68
334520.1309,388.082,-129.991,952.149,-2056.25,-4375.0,183.75,-92.72,9.12,-252.32
334520.181,371.856,-103.334,953.857,-910.0,-3071.25,-586.25,-101.84,-6.08,-244.72
334520.2309,363.56,-106.628,951.966,-2616.25,-5206.25,-70.0,-107.92,9.12,-247.76
334520.2809,375.577,-120.78,952.454,-2415.0,-5495.0,2091.25,-107.92,9.12,-249.28
334520.3309,372.161,-116.998,951.905,-1146.25,-4515.0,2528.75,-103.36,0.0,-255.36
334520.3809,368.623,-120.658,953.552,-2957.5,-6492.5,1995.0,-109.44,9.12,-264.48
334520.4309,382.104,-132.736,951.173,-971.25,-6527.5,1207.5,-120.08,10.64,-241.68
334520.4809,378.932,-123.647,950.136,-1277.5,-6203.75,507.5,-104.88,-6.08,-249.28
334520.5309,381.067,-130.662,950.929,-1190.0,-6886.25,-892.5,-107.92,-4.56,-250.8
334520.5809,390.217,-114.375,942.206,-560.0,-5363.75,-1776.25,-104.88,27.36,-252.32
334520.6309,379.176,-111.935,948.672,-1776.25,-5031.25,-2677.5,-110.96,-3.04,-253.84
334520.6809,387.899,-121.146,945.805,-2143.75,-5661.25,-1986.25,-118.56,3.04,-255.36
334520.7309,382.104,-119.072,949.709,-472.5,-4935.0,-533.75,-103.36,-9.12,-241.68
334520.7809,380.945,-108.519,947.818,-848.75,-4821.25,665.0,-120.08,-10.64,-253.84
334520.8309,381.738,-111.691,949.465,-2310.0,-5888.75,1190.0,-101.84,12.16,-256.88
334520.8809,386.008,-123.525,946.11,-1820.0,-5766.25,1382.5,-103.36,7.6,-234.08
334520.9309,388.082,-120.536,949.831,1225.0,-3946.25,26.25,-109.44,3.04,-253.84
334520.9809,378.871,-102.541,944.829,-1487.5,-5005.0,-1575.0,-106.4,-13.68,-250.8
334521.0309,383.324,-117.913,948.977,-2030.0,-4751.25,-1365.0,-104.88,1.52,-250.8
334521.0809,382.836,-116.205,952.759,-227.5,-4655.0,315.0,-104.88,-7.6,-264.48
334521.1309,376.98,-105.713,949.404,-1373.75,-5232.5,402.5,-114.0,12.16,-246.24
334521.1809,388.143,-115.717,943.06,-1015.0,-5626.25,770.0,-104.88,1.52,-246.24
334521.2309,392.23,-111.02,950.136,-2187.5,-4383.75,1330.0,-123.12,-9.12,-255.36
334521.2809,379.237,-122.61,949.282,-2012.5,-4777.5,525.0,-109.44,6.08,-253.84
334521.3309,387.96,-118.828,948.062,-568.75,-4847.5,-1146.25,-112.48,-4.56,-250.8
334521.3809,384.239,-111.996,950.685,-1155.0,-4270.0,-2117.5,-115.52,-13.68,-252.32
334521.4309,384.727,-108.336,947.452,-2415.0,-5276.25,-2091.25,-107.92,1.52,-255.36
334521.4809,381.433,-109.556,948.001,-1330.0,-4550.0,-78.75,-110.96,6.08,-253.84
334521.5309,380.396,-108.763,951.295,-1391.25,-4252.5,936.25,-115.52,18.24,-241.68
334521.5809,372.1,-109.739,953.918,-1426.25,-5818.75,1653.75,-118.56,-13.68,-253.84
334521.631,386.008,-110.898,943.975,-2056.25,-6037.5,2047.5,-124.64,-4.56,-247.76
334521.6809,395.402,-129.076,947.391,-1207.5,-5390.0,1321.25,-98.8,0.0,-249.28
334521.7309,381.799,-104.737,945.988,-1688.75,-3841.25,-350.0,-109.44,0.0,-249.28
334521.7809,377.041,-111.508,947.33,-3176.25,-4191.25,-1268.75,-106.4,18.24,-252.32
334521.8309,378.505,-119.743,952.454,-1277.5,-5005.0,796.25,-118.56,-15.2,-247.76
334521.8809,377.285,-107.909,945.683,-1907.5,-5661.25,1540.0,-106.4,-3.04,-255.36
334521.9311,383.507,-124.074,951.6,-1776.25,-6186.25,1601.25,-106.4,10.64,-258.4
334521.9809,382.714,-116.205,948.306,-997.5,-5643.75,1557.5,-104.88,4.56,-253.84
334522.031,384.605,-118.462,945.866,-1408.75,-5678.75,603.75,-89.68,-13.68,-253.84
334522.0809,391.803,-113.948,943.243,-586.25,-5355.0,-1225.0,-126.16,-9.12,-249.28
334522.1309,388.814,-105.225,944.585,-1522.5,-4025.0,-1723.75,-107.92,-3.04,-264.48
334522.1809,381.433,-107.177,948.428,-1601.25,-5022.5,-717.5,-110.96,0.0,-252.32
334522.2309,384.544,-107.726,948.489,-1391.25,-5110.0,533.75,-117.04,-15.2,-256.88
334522.2809,387.167,-114.68,949.282,-997.5,-4935.0,577.5,-107.92,4.56,-237.12
334522.331,389.973,-106.811,945.622,-1382.5,-5451.25,805.0,-104.88,-9.12,-247.76
334522.3809,383.751,-111.752,944.341,-2135.0,-4663.75,1085.0,-112.48,9.12,-255.36
334522.4309,401.38,-119.194,947.391,-1610.0,-4812.5,962.5,-104.88,-4.56,-237.12
334522.4809,378.017,-103.639,946.781,-1330.0,-3727.5,96.25,-109.44,4.56,-244.72
334522.5309,384.056,-108.641,946.659,-3333.75,-4795.0,8.75,-103.36,-9.12,-258.4
334522.5809,386.313,-117.486,950.075,-2345.0,-4173.75,988.75,-132.24,-18.24,-244.72
334522.6309,381.921,-108.946,946.964,-936.25,-3893.75,1785.0,-109.44,4.56,-255.36
334522.6809,380.945,-114.009,946.72,-2397.5,-4987.5,2135.0,-107.92,-3.04,-256.88
334522.7309,380.823,-121.329,951.051,-883.75,-3780.0,1933.75,-104.88,12.16,-247.76
334522.7809,373.991,-117.303,948.489,-1653.75,-5363.75,446.25,-106.4,-4.56,-250.8
334522.8309,384.483,-120.841,948.611,-901.25,-5328.75,-516.25,-103.36,9.12,-252.32
334522.8809,380.274,-106.018,949.343,-717.5,-4208.75,-1146.25,-104.88,13.68,-249.28
334522.9309,377.895,-104.432,949.282,-2493.75,-4838.75,-1321.25,-117.04,-3.04,-255.36
334522.9809,374.906,-112.972,949.526,-1776.25,-5101.25,-8.75,-103.36,4.56,-226.48
334523.0309,377.285,-116.937,948.916,-770.0,-4585.0,971.25,-127.68,7.6,-252.32
334523.0809,372.222,-107.116,949.892,-1513.75,-5232.5,1356.25,-97.28,4.56,-235.6
334523.1309,386.313,-120.719,944.219,-2957.5,-5906.25,595.0,-121.6,1.52,-256.88
334523.1809,392.657,-129.808,948.184,840.0,-5013.75,560.0,-104.88,7.6,-256.88
334523.231,380.762,-103.029,944.158,-490.0,-3587.5,-385.0,-88.16,-4.56,-252.32
334523.2809,387.96,-108.885,944.524,-1758.75,-4847.5,-673.75,-109.44,9.12,-235.6
334523.3309,378.932,-110.837,948.733,-1050.0,-4208.75,840.0,-95.76,-6.08,-244.72
334523.3809,375.577,-105.896,946.476,-1041.25,-3482.5,2117.5,-110.96,9.12,-266.0
334523.4309,381.982,-121.695,952.088,-1050.0,-5241.25,2301.25,-106.4,-4.56,-249.28
334523.4809,379.115,-114.924,956.114,-805.0,-4445.0,1058.75,-121.6,-6.08,-255.36
334523.5309,371.673,-119.194,952.088,-2073.75,-5748.75,-393.75,-114.0,4.56,-253.84
334523.5809,380.823,-126.331,949.953,-568.75,-6510.0,-358.75,-110.96,15.2,-234.08
334523.6309,383.507,-101.687,947.879,-43.75,-4243.75,-1575.0,-114.0,7.6,-246.24
334523.6809,376.004,-101.016,950.441,-2012.5,-5031.25,-2012.5,-104.88,6.08,-241.68
334523.7309,381.311,-105.225,950.075,-1653.75,-4567.5,-910.0,-103.36,-7.6,-261.44
334523.7811,372.954,-101.87,952.759,-1653.75,-4821.25,1155.0,-109.44,0.0,-252.32
334523.8309,376.004,-103.7,951.661,-1417.5,-5958.75,2196.25,-112.48,-13.68,-255.36
334523.881,390.4,-108.519,944.707,-2056.25,-5670.0,1715.0,-103.36,4.56,-255.36
334523.9309,386.801,-119.987,948.245,-2135.0,-5215.0,1050.0,-106.4,12.16,-232.56
334523.9809,386.862,-112.728,950.136,-175.0,-4497.5,166.25,-104.88,4.56,-256.88
334524.0309,383.446,-106.201,946.598,-1583.75,-4340.0,-385.0,-112.48,-4.56,-256.88
334524.0809,374.296,-112.85,950.441,-2266.25,-4121.25,350.0,-120.08,3.04,-266.0
334524.1309,375.15,-115.107,954.589,-1233.75,-5258.75,1443.75,-103.36,1.52,-247.76
334524.1809,378.993,-108.458,950.014,-1688.75,-5407.5,1470.0,-124.64,0.0,-252.32
334524.2309,381.982,-116.449,948.062,-1557.5,-5223.75,1242.5,-121.6,9.12,-252.32
334524.2809,374.479,-112.667,953.003,-1268.75,-4690.0,1058.75,-110.96,10.64,-262.96
334524.3309,381.189,-117.364,945.378,-848.75,-5792.5,-8.75,-115.52,-4.56,-259.92
334524.3809,383.629,-110.898,946.842,-612.5,-5810.0,-875.0,-115.52,9.12,-267.52
334524.4309,386.862,-98.576,948.184,-936.25,-4856.25,-1242.5,-118.56,-10.64,-256.88
334524.4809,376.675,-99.186,951.173,-2240.0,-4585.0,-630.0,-100.32,0.0,-252.32
334524.5309,375.577,-105.164,953.186,-1207.5,-5302.5,1198.75,-107.92,10.64,-253.84
334524.5809,378.017,-107.482,951.417,-1303.75,-5460.0,1741.25,-106.4,13.68,-247.76
334524.6309,381.921,-107.543,947.94,-1723.75,-6282.5,1295.0,-104.88,-15.2,-234.08
334524.6809,385.947,-111.874,946.354,-2467.5,-5967.5,533.75,-109.44,1.52,-261.44
334524.7309,395.219,-117.181,945.012,-507.5,-4016.25,-717.5,-103.36,1.52,-244.72
334524.7809,381.555,-100.467,949.282,-1225.0,-3648.75,-175.0,-127.68,-6.08,-259.92
334524.8309,373.442,-109.922,952.698,-2327.5,-5022.5,577.5,-110.96,12.16,-246.24
334524.8809,382.287,-115.229,953.43,-1680.0,-5346.25,1601.25,-100.32,7.6,-249.28
