TimeStamp,ax,ay,az,gx,gy,gz,mx,my,mz
2077.7739,836.737,-164.822,595.299,-1540.0,-4733.75,358.75,-167.2,-249.28,-259.92
2077.8239,835.517,-165.005,597.434,-1671.25,-4348.75,621.25,-144.4,-261.44,-276.64
2077.8739,836.432,-165.859,595.421,-1338.75,-4742.5,691.25,-142.88,-249.28,-266.0
2077.9239,835.761,-166.042,596.58,-1531.25,-4707.5,813.75,-158.08,-253.84,-267.52
2077.9739,835.883,-165.188,595.787,-1522.5,-4803.75,498.75,-150.48,-255.36,-261.44
2078.0239,833.809,-165.615,596.824,-1513.75,-4471.25,341.25,-148.96,-259.92,-282.72
2078.0739,838.201,-165.859,595.36,-1400.0,-4777.5,673.75,-159.6,-249.28,-266.0
2078.1239,836.371,-164.273,598.044,-1583.75,-4655.0,857.5,-153.52,-250.8,-276.64
2078.1739,836.92,-165.798,597.861,-1330.0,-4803.75,735.0,-152.0,-246.24,-269.04
2078.2239,834.846,-165.066,596.885,-1435.0,-4663.75,271.25,-139.84,-249.28,-284.24
2078.2739,835.212,-167.079,596.214,-1443.75,-4488.75,350.0,-158.08,-267.52,-272.08
2078.3239,834.663,-163.419,598.166,-1277.5,-4777.5,621.25,-153.52,-253.84,-275.12
2078.3739,839.482,-165.981,596.824,-1540.0,-4637.5,910.0,-150.48,-262.96,-266.0
2078.4239,837.774,-167.201,594.323,-1601.25,-4786.25,708.75,-130.72,-261.44,-261.44
2078.4739,837.042,-165.676,598.166,-1828.75,-4523.75,402.5,-147.44,-247.76,-256.88
2078.5239,837.896,-163.48,598.105,-1540.0,-4733.75,393.75,-147.44,-261.44,-269.04
2078.574,838.262,-163.358,597.678,-1636.25,-4576.25,542.5,-158.08,-252.32,-279.68
2078.6239,837.286,-165.981,596.397,-1470.0,-4523.75,787.5,-150.48,-256.88,-275.12
2078.6739,834.175,-165.249,597.861,-1522.5,-4497.5,612.5,-139.84,-252.32,-267.52
2078.7239,836.432,-166.225,596.641,-1478.75,-4830.0,428.75,-135.28,-261.44,-264.48
2078.7739,835.395,-165.432,595.787,-1505.0,-4655.0,498.75,-161.12,-262.96,-267.52
2078.8239,834.785,-165.92,597.495,-1548.75,-4672.5,612.5,-167.2,-259.92,-259.92
2078.8739,835.822,-165.188,597.922,-1575.0,-4453.75,743.75,-142.88,-250.8,-255.36
2078.9239,830.698,-165.554,594.018,-1260.0,-4777.5,376.25,-142.88,-246.24,-262.96
2078.9739,834.602,-164.517,596.58,-1478.75,-4803.75,647.5,-155.04,-258.4,-262.96
2079.0239,834.907,-165.005,597.495,-1277.5,-4550.0,612.5,-155.04,-243.2,-258.4
2079.0739,836.92,-168.055,595.543,-1680.0,-4480.0,796.25,-164.16,-252.32,-287.28
2079.1239,836.249,-164.334,597.007,-1636.25,-4681.25,498.75,-150.48,-253.84,-276.64
2079.1739,836.676,-164.273,596.153,-1662.5,-4733.75,490.0,-138.32,-244.72,-264.48
2079.2239,836.127,-167.933,597.8,-1487.5,-4663.75,332.5,-150.48,-264.48,-261.44
2079.2739,836.188,-164.395,596.397,-1487.5,-4751.25,743.75,-148.96,-258.4,-269.04
2079.3239,836.066,-167.567,595.055,-1601.25,-4786.25,761.25,-142.88,-261.44,-273.6
2079.3739,837.957,-163.785,595.36,-1522.5,-4716.25,446.25,-136.8,-247.76,-275.12
2079.4239,834.236,-165.249,597.861,-1443.75,-4585.0,288.75,-155.04,-264.48,-259.92
2079.4739,835.883,-164.883,597.251,-1610.0,-4418.75,367.5,-155.04,-264.48,-264.48
2079.5239,836.615,-165.371,597.007,-1636.25,-4523.75,866.25,-153.52,-252.32,-264.48
2079.5739,837.835,-166.408,595.116,-1408.75,-4751.25,638.75,-158.08,-253.84,-261.44
2079.6239,834.48,-166.835,596.519,-1470.0,-4698.75,376.25,-147.44,-243.2,-250.8
2079.6739,836.859,-166.835,596.397,-1540.0,-4567.5,350.0,-148.96,-249.28,-264.48
2079.7239,834.663,-165.066,598.166,-1583.75,-4436.25,490.0,-156.56,-262.96,-269.04
2079.7739,837.469,-166.347,594.994,-1478.75,-4882.5,822.5,-165.68,-259.92,-266.0
2079.8241,836.249,-167.018,598.41,-1557.5,-4873.75,787.5,-144.4,-252.32,-278.16
2079.8739,835.212,-166.53,597.922,-1496.25,-4532.5,630.0,-142.88,-267.52,-267.52
2079.9239,837.042,-164.395,595.97,-1627.5,-4418.75,411.25,-139.84,-264.48,-258.4
2079.9739,836.493,-165.066,596.458,-1295.0,-4803.75,472.5,-156.56,-259.92,-282.72
2080.0239,833.809,-162.626,596.58,-1417.5,-4812.5,726.25,-158.08,-264.48,-278.16
2080.0739,836.493,-167.994,594.384,-1400.0,-4690.0,630.0,-156.56,-246.24,-270.56
2080.1239,834.846,-161.284,595.177,-1636.25,-4602.5,586.25,-132.24,-258.4,-269.04
2080.1739,837.347,-169.153,596.58,-1662.5,-4698.75,577.5,-145.92,-256.88,-269.04
2080.2239,835.822,-163.053,595.726,-1540.0,-4646.25,621.25,-156.56,-261.44,-272.08
2080.2739,833.992,-163.297,597.495,-1540.0,-4628.75,743.75,-158.08,-243.2,-275.12
2080.3239,836.432,-162.931,596.397,-1592.5,-4768.75,568.75,-150.48,-259.92,-262.96
2080.3739,838.14,-165.981,594.506,-1435.0,-4821.25,490.0,-142.88,-261.44,-255.36
2080.4239,836.859,-166.042,596.946,-1487.5,-4908.75,516.25,-155.04,-261.44,-262.96
2080.4739,836.066,-165.615,595.787,-1653.75,-4453.75,761.25,-150.48,-253.84,-273.6
2080.5239,836.859,-165.676,597.312,-1610.0,-4488.75,621.25,-152.0,-247.76,-276.64
2080.5739,835.517,-165.737,596.702,-1645.0,-4628.75,463.75,-155.04,-255.36,-264.48
2080.6239,832.955,-164.7,598.532,-1575.0,-4672.5,411.25,-142.88,-259.92,-269.04
2080.6739,837.652,-164.944,596.58,-1461.25,-4803.75,638.75,-145.92,-258.4,-250.8
2080.7239,834.297,-165.249,594.567,-1487.5,-4996.25,778.75,-162.64,-252.32,-270.56
2080.7739,834.724,-165.92,597.8,-1400.0,-4576.25,743.75,-156.56,-244.72,-267.52
2080.8239,834.114,-165.066,597.19,-1732.5,-4541.25,472.5,-142.88,-261.44,-270.56
2080.8739,838.201,-166.713,595.177,-1697.5,-4602.5,385.0,-138.32,-256.88,-262.96
2080.9239,836.92,-164.578,597.556,-1627.5,-4585.0,761.25,-147.44,-266.0,-270.56
2080.9739,835.334,-162.26,596.092,-1426.25,-4690.0,726.25,-159.6,-266.0,-252.32
2081.0239,836.981,-167.262,595.665,-1496.25,-4786.25,866.25,-162.64,-256.88,-266.0
2081.0739,834.724,-165.92,595.787,-1522.5,-4567.5,498.75,-152.0,-253.84,-273.6
2081.1239,836.31,-165.188,595.787,-1400.0,-4838.75,402.5,-138.32,-255.36,-261.44
2081.1741,836.798,-165.371,597.556,-1365.0,-4602.5,761.25,-156.56,-258.4,-264.48
2081.2239,834.968,-167.872,594.506,-1557.5,-4663.75,778.75,-164.16,-244.72,-259.92
2081.274,835.395,-166.286,597.373,-1531.25,-4480.0,656.25,-162.64,-252.32,-270.56
2081.3239,836.371,-164.334,597.983,-1610.0,-4541.25,323.75,-147.44,-252.32,-258.4
2081.3739,835.456,-164.7,596.458,-1496.25,-5118.75,437.5,-161.12,-240.16,-267.52
2081.4239,838.384,-164.944,596.824,-1443.75,-4506.25,533.75,-155.04,-264.48,-267.52
2081.4739,836.188,-167.628,596.885,-1548.75,-4672.5,551.25,-155.04,-258.4,-267.52
2081.5239,837.286,-163.846,596.824,-1513.75,-4830.0,542.5,-150.48,-252.32,-267.52
2081.5739,837.347,-165.371,596.336,-1391.25,-4637.5,437.5,-156.56,-255.36,-272.08
2081.6239,837.103,-164.395,596.824,-1741.25,-4462.5,498.75,-155.04,-270.56,-270.56
2081.6739,838.14,-163.785,597.556,-1505.0,-4655.0,673.75,-150.48,-266.0,-273.6
2081.7239,835.517,-164.517,598.105,-1610.0,-4733.75,525.0,-135.28,-261.44,-262.96
2081.7739,834.968,-167.323,595.848,-1522.5,-4663.75,516.25,-150.48,-256.88,-273.6
2081.8239,834.907,-164.09,597.8,-1452.5,-4628.75,542.5,-142.88,-259.92,-285.76
2081.8739,837.164,-164.273,597.8,-1443.75,-4795.0,726.25,-158.08,-232.56,-255.36
2081.9239,837.774,-164.7,596.275,-1478.75,-4672.5,726.25,-155.04,-255.36,-269.04
2081.9739,836.493,-164.944,596.458,-1662.5,-4480.0,595.0,-141.36,-241.68,-261.44
2082.0239,834.663,-165.066,596.824,-1583.75,-4663.75,411.25,-127.68,-253.84,-264.48
2082.0739,836.188,-164.09,596.031,-1618.75,-4707.5,411.25,-152.0,-269.04,-262.96
2082.1239,835.944,-165.981,594.994,-1470.0,-4663.75,787.5,-155.04,-267.52,-262.96
2082.1739,835.578,-163.846,598.166,-1400.0,-4917.5,848.75,-156.56,-262.96,-264.48
2082.2239,836.676,-166.957,596.885,-1496.25,-4558.75,463.75,-130.72,-247.76,-256.88
2082.2739,835.883,-165.92,598.654,-1452.5,-4541.25,376.25,-158.08,-250.8,-267.52
2082.3239,834.48,-165.859,595.604,-1723.75,-4488.75,393.75,-164.16,-261.44,-262.96
2082.3739,837.713,-165.859,596.519,-1627.5,-4768.75,796.25,-147.44,-258.4,-266.0
2082.4239,834.907,-162.931,598.776,-1452.5,-4602.5,665.0,-159.6,-246.24,-262.96
2082.4739,838.201,-166.774,597.007,-1820.0,-4506.25,446.25,-156.56,-258.4,-264.48
2082.524,833.016,-163.053,598.166,-1557.5,-4628.75,463.75,-170.24,-267.52,-273.6
2082.5739,835.761,-164.09,597.373,-1540.0,-4488.75,428.75,-156.56,-255.36,-259.92
2082.6239,836.798,-164.334,597.068,-1373.75,-4856.25,647.5,-144.4,-258.4,-275.12
2082.6739,834.846,-164.944,595.116,-1645.0,-4593.75,735.0,-138.32,-246.24,-270.56
2082.7239,837.164,-167.201,595.543,-1487.5,-4821.25,577.5,-145.92,-264.48,-255.36
2082.7739,834.175,-162.931,595.238,-1653.75,-4602.5,446.25,-162.64,-252.32,-266.0
2082.8239,836.31,-165.493,595.543,-1426.25,-5057.5,472.5,-145.92,-246.24,-272.08
2082.8739,836.676,-162.321,598.532,-1505.0,-4698.75,691.25,-136.8,-253.84,-272.08
2082.9239,835.944,-165.127,595.177,-1478.75,-4716.25,577.5,-153.52,-246.24,-269.04
2082.9739,835.7,-164.151,596.092,-1697.5,-4488.75,385.0,-156.56,-256.88,-261.44
2083.0239,834.297,-164.944,596.092,-1680.0,-4383.75,595.0,-153.52,-237.12,-259.92
2083.0739,832.894,-165.249,596.763,-1461.25,-4768.75,551.25,-147.44,-259.92,-267.52
2083.1239,834.846,-166.347,596.397,-1566.25,-4856.25,673.75,-141.36,-253.84,-246.24
2083.1739,833.992,-165.432,594.628,-1400.0,-4593.75,542.5,-147.44,-270.56,-261.44
2083.2239,837.286,-163.175,595.787,-1531.25,-4751.25,420.0,-144.4,-261.44,-264.48
2083.2739,835.212,-166.347,596.519,-1566.25,-4637.5,612.5,-155.04,-250.8,-270.56
2083.3239,834.541,-162.748,599.081,-1522.5,-4585.0,638.75,-155.04,-253.84,-276.64
2083.3739,836.554,-163.114,597.129,-1636.25,-4576.25,612.5,-150.48,-249.28,-269.04
2083.4239,836.859,-166.042,596.336,-1496.25,-4401.25,367.5,-142.88,-258.4,-262.96
2083.4739,835.944,-165.92,598.227,-1513.75,-4602.5,393.75,-142.88,-259.92,-259.92
2083.5239,834.358,-164.578,596.458,-1443.75,-4681.25,612.5,-153.52,-256.88,-272.08
2083.5739,837.896,-161.955,596.092,-1505.0,-4795.0,770.0,-141.36,-258.4,-261.44
2083.6239,836.005,-163.968,595.726,-1478.75,-4567.5,761.25,-161.12,-247.76,-261.44
2083.6739,836.554,-166.408,595.97,-1557.5,-4418.75,428.75,-155.04,-259.92,-252.32
2083.7239,834.663,-162.931,599.813,-1566.25,-4523.75,297.5,-153.52,-253.84,-276.64
2083.7739,837.408,-163.846,595.848,-1583.75,-4716.25,778.75,-155.04,-249.28,-266.0
2083.8239,838.628,-165.249,596.824,-1452.5,-4900.0,822.5,-152.0,-253.84,-269.04
2083.874,835.7,-163.541,598.288,-1443.75,-4567.5,656.25,-150.48,-240.16,-267.52
2083.9239,836.737,-165.493,594.567,-1417.5,-4935.0,385.0,-161.12,-235.6,-247.76
2083.9739,838.079,-166.408,596.458,-1601.25,-4515.0,393.75,-156.56,-262.96,-273.6
2084.0239,836.615,-165.127,595.787,-1426.25,-4856.25,717.5,-148.96,-261.44,-266.0
2084.0739,837.103,-163.724,596.519,-1583.75,-4340.0,656.25,-148.96,-266.0,-269.04
2084.1239,837.164,-165.127,594.628,-1505.0,-4847.5,638.75,-150.48,-243.2,-253.84
2084.1739,839.482,-166.103,595.299,-1548.75,-4637.5,385.0,-148.96,-267.52,-266.0
2084.2239,833.992,-164.151,597.861,-1522.5,-4576.25,472.5,-155.04,-264.48,-270.56
2084.2739,837.408,-166.042,596.153,-1592.5,-4488.75,647.5,-165.68,-258.4,-255.36
2084.3239,835.334,-164.883,598.471,-1470.0,-4716.25,656.25,-147.44,-249.28,-264.48
2084.3739,836.859,-163.846,594.933,-1461.25,-4515.0,656.25,-153.52,-256.88,-252.32
2084.4239,836.31,-164.639,598.898,-1645.0,-4427.5,533.75,-138.32,-259.92,-288.8
2084.474,836.737,-164.944,596.397,-1610.0,-4541.25,603.75,-170.24,-270.56,-270.56
2084.5239,837.469,-163.968,595.787,-1347.5,-4987.5,682.5,-158.08,-262.96,-269.04
2084.5739,834.663,-166.042,595.543,-1540.0,-4970.0,577.5,-144.4,-259.92,-272.08
2084.6239,837.042,-165.249,599.447,-1478.75,-4698.75,393.75,-127.68,-247.76,-272.08
2084.6739,836.92,-165.371,594.201,-1400.0,-4602.5,577.5,-156.56,-253.84,-281.2
2084.7239,834.968,-164.517,596.641,-1478.75,-4812.5,691.25,-142.88,-256.88,-262.96
2084.7739,835.395,-166.774,596.519,-1653.75,-4690.0,892.5,-167.2,-255.36,-259.92
2084.8239,834.297,-164.761,596.275,-1505.0,-4532.5,402.5,-162.64,-246.24,-270.56
2084.8739,836.066,-164.822,595.604,-1601.25,-4812.5,490.0,-144.4,-252.32,-270.56
2084.9239,836.371,-164.7,595.909,-1662.5,-4436.25,306.25,-139.84,-249.28,-267.52
2084.9739,836.371,-164.029,597.312,-1443.75,-4611.25,647.5,-150.48,-255.36,-272.08
2085.0239,835.273,-166.713,598.227,-1417.5,-4777.5,805.0,-145.92,-256.88,-256.88
2085.0739,835.151,-164.761,594.506,-1478.75,-4637.5,393.75,-159.6,-252.32,-249.28
2085.1239,835.09,-163.724,598.593,-1575.0,-4690.0,358.75,-139.84,-253.84,-262.96
2085.1739,837.225,-164.578,597.983,-1505.0,-4725.0,358.75,-148.96,-250.8,-273.6
2085.224,835.273,-165.188,596.519,-1522.5,-4891.25,822.5,-158.08,-262.96,-261.44
2085.2739,837.713,-165.92,594.262,-1513.75,-4707.5,752.5,-145.92,-252.32,-262.96
2085.3239,835.761,-166.286,596.702,-1548.75,-4611.25,385.0,-139.84,-259.92,-276.64
2085.3739,838.689,-164.395,595.177,-1671.25,-4620.0,402.5,-147.44,-259.92,-255.36
2085.4239,838.384,-165.737,596.519,-1382.5,-4742.5,472.5,-153.52,-258.4,-269.04
2085.4739,838.75,-163.236,597.251,-1330.0,-4856.25,682.5,-159.6,-256.88,-267.52
2085.5239,835.944,-164.761,592.432,-1505.0,-4698.75,743.75,-159.6,-255.36,-264.48
2085.5739,833.809,-164.578,596.153,-1470.0,-4698.75,560.0,-158.08,-255.36,-259.92
2085.6239,834.602,-166.652,594.262,-1548.75,-4515.0,376.25,-147.44,-250.8,-264.48
2085.6739,837.591,-163.358,595.665,-1636.25,-4663.75,630.0,-155.04,-246.24,-278.16
2085.7239,838.811,-169.397,595.787,-1715.0,-4576.25,910.0,-167.2,-262.96,-259.92
2085.7739,834.48,-161.833,596.092,-1461.25,-4611.25,428.75,-161.12,-250.8,-276.64
2085.8239,835.517,-166.408,594.994,-1505.0,-4812.5,428.75,-139.84,-267.52,-264.48
2085.8739,835.7,-163.48,593.652,-1452.5,-4803.75,481.25,-138.32,-255.36,-266.0
2085.9239,836.92,-165.798,591.883,-1680.0,-4803.75,813.75,-145.92,-250.8,-267.52
2085.9739,836.859,-166.469,595.299,-1548.75,-4515.0,516.25,-144.4,-266.0,-278.16
2086.0239,833.138,-164.395,599.203,-1645.0,-4655.0,472.5,-165.68,-262.96,-262.96
2086.0739,834.48,-164.029,598.654,-1478.75,-4856.25,411.25,-145.92,-258.4,-266.0
2086.1239,837.286,-165.432,595.909,-1505.0,-4628.75,638.75,-152.0,-247.76,-275.12
2086.1739,835.944,-164.334,596.031,-1435.0,-4427.5,778.75,-147.44,-252.32,-270.56
2086.2239,835.822,-162.138,598.41,-1496.25,-4576.25,446.25,-141.36,-262.96,-275.12
2086.2739,834.785,-168.421,597.068,-1837.5,-4681.25,446.25,-153.52,-259.92,-255.36
2086.3239,837.957,-163.785,596.946,-1268.75,-4690.0,262.5,-148.96,-246.24,-266.0
2086.3739,838.262,-162.565,596.336,-1435.0,-4751.25,656.25,-153.52,-259.92,-267.52
2086.4239,836.371,-169.031,594.933,-1671.25,-4515.0,980.0,-156.56,-262.96,-266.0
2086.4739,835.456,-164.09,595.177,-1225.0,-4935.0,507.5,-141.36,-250.8,-258.4
2086.5239,837.835,-161.101,597.373,-1548.75,-4768.75,253.75,-150.48,-253.84,-259.92
2086.5739,833.931,-164.151,597.19,-1732.5,-4348.75,420.0,-155.04,-249.28,-270.56
2086.6239,836.249,-163.785,593.774,-1688.75,-4690.0,866.25,-142.88,-247.76,-266.0
2086.6739,833.687,-164.883,598.105,-1373.75,-4690.0,603.75,-142.88,-252.32,-273.6
2086.7239,833.809,-162.321,595.787,-1443.75,-4987.5,656.25,-161.12,-259.92,-266.0
2086.7739,837.042,-166.103,594.933,-1627.5,-4856.25,358.75,-148.96,-269.04,-270.56
2086.8239,838.506,-164.822,594.567,-1400.0,-4506.25,455.0,-156.56,-259.92,-270.56
2086.8739,834.785,-163.297,596.031,-1566.25,-4628.75,813.75,-152.0,-258.4,-262.96
2086.9239,833.565,-164.334,596.58,-1601.25,-4655.0,761.25,-158.08,-256.88,-262.96
2086.9739,835.761,-165.493,592.493,-1443.75,-5040.0,525.0,-152.0,-270.56,-272.08
2087.0239,835.822,-161.894,594.628,-1478.75,-4725.0,280.0,-155.04,-281.2,-262.96
2087.0739,838.201,-164.578,593.286,-1566.25,-4716.25,560.0,-161.12,-253.84,-275.12
2087.1239,836.31,-165.371,597.495,-1566.25,-4471.25,717.5,-147.44,-261.44,-273.6
2087.1739,834.419,-164.578,599.264,-1505.0,-4628.75,638.75,-144.4,-259.92,-253.84
2087.2239,837.225,-165.249,597.19,-1470.0,-4602.5,411.25,-153.52,-250.8,-262.96
2087.2739,839.543,-163.907,593.774,-1592.5,-4445.0,446.25,-159.6,-259.92,-266.0
2087.3239,833.931,-162.931,596.092,-1540.0,-4515.0,630.0,-139.84,-250.8,-281.2
2087.3739,834.724,-165.066,594.14,-1575.0,-5048.75,770.0,-162.64,-246.24,-261.44
2087.4239,839.238,-165.005,594.201,-1575.0,-4593.75,472.5,-145.92,-256.88,-266.0
2087.4739,837.286,-165.615,596.153,-1505.0,-4637.5,446.25,-153.52,-262.96,-258.4
2087.5239,839.909,-163.846,596.336,-1356.25,-4908.75,420.0,-155.04,-246.24,-258.4
2087.5739,834.785,-164.883,596.397,-1758.75,-4322.5,813.75,-145.92,-240.16,-266.0
2087.6239,836.005,-166.53,596.885,-1408.75,-4865.0,595.0,-145.92,-262.96,-261.44
2087.6739,835.883,-161.589,597.678,-1513.75,-4628.75,420.0,-158.08,-258.4,-261.44
2087.7239,836.92,-164.883,592.554,-1540.0,-4602.5,437.5,-152.0,-238.64,-264.48
2087.7739,835.822,-164.517,596.214,-1557.5,-4786.25,455.0,-168.72,-276.64,-267.52
2087.824,835.578,-166.164,595.055,-1295.0,-4847.5,621.25,-148.96,-250.8,-275.12
2087.8739,835.029,-163.663,599.386,-1627.5,-4620.0,848.75,-136.8,-255.36,-266.0
2087.9239,837.713,-165.554,594.14,-1548.75,-4707.5,446.25,-133.76,-256.88,-273.6
2087.9739,836.798,-163.358,596.58,-1540.0,-4418.75,411.25,-161.12,-250.8,-273.6
2088.0239,835.944,-165.554,596.458,-1522.5,-4550.0,306.25,-176.32,-259.92,-273.6
2088.0739,837.042,-163.358,596.824,-1513.75,-4392.5,761.25,-152.0,-237.12,-267.52
2088.1239,836.981,-164.395,597.007,-1347.5,-4961.25,682.5,-162.64,-264.48,-266.0
2088.1739,836.981,-164.151,595.97,-1470.0,-4873.75,332.5,-147.44,-250.8,-267.52
2088.2239,836.066,-162.809,595.604,-1417.5,-4628.75,358.75,-144.4,-246.24,-262.96
2088.2739,836.188,-164.944,593.957,-1618.75,-4445.0,533.75,-164.16,-259.92,-253.84
2088.3239,836.127,-165.859,594.506,-1417.5,-4567.5,673.75,-150.48,-253.84,-261.44
2088.3739,834.419,-164.517,598.593,-1671.25,-4418.75,726.25,-153.52,-243.2,-270.56
2088.4239,834.907,-163.663,593.53,-1522.5,-4760.0,420.0,-158.08,-255.36,-273.6
2088.4739,836.127,-164.761,594.323,-1522.5,-4646.25,507.5,-155.04,-259.92,-266.0
2088.5239,835.395,-163.907,595.055,-1522.5,-4690.0,647.5,-158.08,-249.28,-273.6
2088.5739,836.31,-165.737,596.763,-1645.0,-4961.25,708.75,-155.04,-258.4,-261.44
2088.6239,836.859,-164.212,597.8,-1645.0,-4558.75,498.75,-150.48,-247.76,-256.88
2088.6739,835.944,-164.639,597.495,-1487.5,-4558.75,367.5,-138.32,-256.88,-275.12
2088.7239,836.127,-162.87,596.519,-1557.5,-4445.0,577.5,-145.92,-273.6,-262.96
2088.7739,833.26,-164.883,596.275,-1487.5,-4803.75,761.25,-168.72,-243.2,-256.88
2088.8239,835.822,-163.297,594.14,-1636.25,-4663.75,516.25,-147.44,-250.8,-278.16
2088.8739,835.151,-164.578,597.739,-1522.5,-4830.0,481.25,-135.28,-267.52,-253.84
2088.9239,836.554,-164.822,596.092,-1540.0,-4768.75,358.75,-161.12,-253.84,-253.84
2088.9739,837.225,-164.7,595.787,-1513.75,-4812.5,656.25,-155.04,-247.76,-262.96
2089.0239,836.554,-164.578,596.519,-1557.5,-4690.0,813.75,-144.4,-258.4,-258.4
2089.0739,834.846,-165.859,596.519,-1557.5,-4515.0,463.75,-138.32,-258.4,-266.0
2089.1239,836.676,-163.297,598.471,-1478.75,-4488.75,376.25,-139.84,-256.88,-262.96
2089.174,835.761,-163.48,596.702,-1426.25,-4900.0,341.25,-161.12,-244.72,-259.92
2089.2239,836.31,-164.395,596.885,-1487.5,-4681.25,726.25,-150.48,-253.84,-262.96
2089.2739,834.907,-162.26,596.031,-1356.25,-4838.75,743.75,-147.44,-234.08,-287.28
2089.3239,835.7,-166.286,596.58,-1540.0,-4637.5,813.75,-138.32,-258.4,-269.04
2089.3739,836.31,-166.408,594.628,-1662.5,-4576.25,411.25,-147.44,-253.84,-256.88
2089.4239,837.774,-164.7,597.068,-1478.75,-4348.75,358.75,-152.0,-267.52,-264.48
2089.4739,835.212,-164.029,596.336,-1540.0,-4541.25,822.5,-161.12,-250.8,-272.08
2089.5239,835.151,-164.151,596.397,-1575.0,-4900.0,805.0,-142.88,-266.0,-264.48
2089.5739,836.676,-165.676,594.933,-1347.5,-4865.0,735.0,-167.2,-259.92,-266.0
2089.6239,837.042,-165.493,595.543,-1487.5,-4672.5,350.0,-132.24,-259.92,-273.6
2089.6739,836.005,-165.798,595.482,-1653.75,-4558.75,411.25,-162.64,-253.84,-256.88
2089.7239,837.408,-167.201,596.702,-1408.75,-4812.5,848.75,-152.0,-250.8,-284.24
2089.7739,837.286,-160.796,596.458,-1583.75,-4462.5,647.5,-164.16,-273.6,-270.56
2089.8239,835.09,-166.225,595.97,-1601.25,-4672.5,612.5,-138.32,-253.84,-267.52
2089.8739,836.188,-166.408,596.519,-1645.0,-4488.75,297.5,-142.88,-249.28,-267.52
2089.9239,836.188,-165.371,595.848,-1452.5,-4585.0,472.5,-148.96,-255.36,-259.92
2089.9739,833.382,-164.761,595.299,-1408.75,-4646.25,743.75,-159.6,-255.36,-279.68
2090.0239,835.7,-167.018,596.702,-1566.25,-4882.5,630.0,-158.08,-261.44,-261.44
2090.0739,836.554,-164.7,595.482,-1513.75,-4655.0,498.75,-144.4,-252.32,-276.64
2090.1239,836.127,-163.48,596.214,-1557.5,-4672.5,455.0,-138.32,-252.32,-269.04
2090.1739,834.297,-165.432,598.227,-1627.5,-4690.0,761.25,-145.92,-250.8,-261.44
2090.2239,834.114,-164.944,595.36,-1330.0,-5083.75,831.25,-150.48,-250.8,-259.92
2090.2739,835.212,-166.347,595.116,-1478.75,-4777.5,437.5,-161.12,-256.88,-270.56
2090.3239,836.798,-166.042,596.397,-1408.75,-4655.0,288.75,-165.68,-249.28,-258.4
2090.3739,833.443,-164.395,596.641,-1338.75,-4786.25,525.0,-145.92,-256.88,-267.52
2090.4239,837.225,-165.005,596.031,-1636.25,-4803.75,831.25,-162.64,-261.44,-262.96
2090.4739,834.114,-163.968,595.299,-1426.25,-4725.0,787.5,-155.04,-258.4,-275.12
2090.524,835.578,-165.798,595.726,-1680.0,-4593.75,350.0,-135.28,-262.96,-258.4
2090.5739,838.201,-165.371,594.689,-1505.0,-4777.5,315.0,-159.6,-240.16,-275.12
2090.6239,838.628,-164.273,598.349,-1680.0,-4383.75,428.75,-148.96,-249.28,-276.64
2090.6739,835.944,-163.114,596.824,-1540.0,-4532.5,822.5,-162.64,-250.8,-264.48
2090.7239,835.334,-164.883,597.983,-1522.5,-4646.25,743.75,-156.56,-261.44,-266.0
2090.7739,835.578,-164.151,596.275,-1496.25,-4882.5,428.75,-156.56,-255.36,-255.36
2090.8239,837.469,-165.127,597.922,-1881.25,-4191.25,420.0,-148.96,-255.36,-261.44
2090.8739,834.968,-163.541,597.129,-1391.25,-4961.25,253.75,-155.04,-249.28,-252.32
2090.9239,833.992,-163.846,595.238,-1426.25,-4952.5,787.5,-161.12,-264.48,-262.96
2090.9739,836.188,-164.029,595.482,-1496.25,-4628.75,726.25,-152.0,-259.92,-261.44
2091.0239,837.774,-164.151,597.007,-1575.0,-4690.0,297.5,-142.88,-249.28,-258.4
2091.0739,835.029,-165.005,596.763,-1601.25,-4786.25,542.5,-136.8,-255.36,-272.08
2091.1239,836.493,-164.7,594.811,-1618.75,-4637.5,638.75,-142.88,-246.24,-253.84
2091.1739,835.456,-164.639,596.885,-1627.5,-4681.25,743.75,-159.6,-255.36,-264.48
2091.2239,836.493,-163.663,594.384,-1435.0,-4795.0,560.0,-148.96,-258.4,-253.84
2091.2739,833.748,-167.445,598.959,-1461.25,-4532.5,463.75,-144.4,-249.28,-276.64
2091.3239,836.981,-165.31,596.214,-1540.0,-4777.5,446.25,-136.8,-247.76,-273.6
2091.3739,836.737,-163.968,594.445,-1557.5,-4558.75,595.0,-152.0,-247.76,-258.4
2091.4239,838.506,-165.188,598.654,-1452.5,-4795.0,647.5,-156.56,-255.36,-256.88
2091.4739,834.419,-165.432,594.689,-1627.5,-4593.75,507.5,-156.56,-256.88,-278.16
2091.5239,834.846,-165.981,596.458,-1443.75,-4672.5,446.25,-148.96,-250.8,-273.6
2091.5739,834.968,-164.029,595.116,-1592.5,-4497.5,647.5,-145.92,-261.44,-264.48
2091.6239,836.432,-163.663,595.238,-1400.0,-4847.5,761.25,-133.76,-258.4,-261.44
2091.6739,837.103,-162.748,597.007,-1513.75,-4742.5,542.5,-156.56,-258.4,-261.44
2091.7239,834.236,-162.626,595.36,-1557.5,-4716.25,481.25,-174.8,-256.88,-262.96
2091.7739,835.456,-163.602,597.495,-1601.25,-4471.25,411.25,-150.48,-253.84,-278.16
2091.8239,836.737,-164.212,596.031,-1417.5,-4698.75,770.0,-147.44,-256.88,-262.96
2091.874,836.981,-166.408,597.373,-1531.25,-4742.5,805.0,-135.28,-249.28,-279.68
2091.9239,836.615,-165.371,593.957,-1426.25,-4716.25,490.0,-156.56,-267.52,-259.92
2091.9739,835.7,-164.09,596.275,-1557.5,-4593.75,393.75,-147.44,-262.96,-272.08
2092.0239,836.981,-165.798,596.153,-1496.25,-4716.25,262.5,-144.4,-252.32,-259.92
2092.0739,836.798,-161.955,597.495,-1330.0,-4838.75,778.75,-142.88,-253.84,-259.92
2092.1239,836.92,-164.944,597.922,-1522.5,-4873.75,875.0,-127.68,-253.84,-255.36
2092.1739,835.029,-166.103,598.41,-1627.5,-4558.75,778.75,-156.56,-259.92,-255.36
2092.2239,835.761,-165.737,596.458,-1688.75,-4681.25,350.0,-159.6,-252.32,-281.2
2092.2739,837.53,-165.676,597.373,-1557.5,-4768.75,411.25,-144.4,-241.68,-278.16
2092.3239,836.005,-165.005,594.506,-1443.75,-4628.75,735.0,-156.56,-255.36,-258.4
2092.3739,837.408,-162.687,596.946,-1513.75,-4873.75,761.25,-152.0,-258.4,-261.44
2092.4239,836.554,-165.005,595.116,-1505.0,-4725.0,717.5,-153.52,-256.88,-266.0
2092.4739,834.602,-164.09,595.665,-1627.5,-4558.75,428.75,-164.16,-255.36,-262.96
2092.5239,835.578,-165.127,594.079,-1496.25,-4585.0,472.5,-142.88,-250.8,-278.16
2092.5739,837.835,-165.066,594.506,-1505.0,-4838.75,726.25,-139.84,-261.44,-261.44
2092.6239,836.859,-166.347,594.75,-1601.25,-4410.0,621.25,-153.52,-247.76,-273.6
2092.6739,836.188,-162.199,595.238,-1470.0,-4803.75,568.75,-156.56,-255.36,-272.08
2092.7239,834.114,-165.066,598.105,-1627.5,-4690.0,621.25,-135.28,-252.32,-278.16
2092.7739,835.517,-163.236,595.665,-1487.5,-4795.0,525.0,-144.4,-252.32,-261.44
2092.8239,835.09,-164.029,594.384,-1601.25,-4751.25,743.75,-153.52,-261.44,-264.48
2092.8739,834.724,-165.005,595.421,-1601.25,-4786.25,691.25,-152.0,-253.84,-264.48
2092.9239,836.249,-164.09,594.262,-1566.25,-4550.0,498.75,-161.12,-261.44,-267.52
2092.9739,836.676,-164.639,596.031,-1592.5,-4436.25,455.0,-147.44,-250.8,-270.56
2093.0239,835.09,-167.079,595.604,-1365.0,-4838.75,630.0,-150.48,-266.0,-258.4
2093.0739,834.785,-163.968,595.604,-1522.5,-4698.75,778.75,-158.08,-261.44,-278.16
2093.1239,836.249,-165.92,595.909,-1513.75,-4558.75,463.75,-155.04,-264.48,-264.48
2093.1739,836.005,-163.846,594.872,-1557.5,-4690.0,446.25,-144.4,-252.32,-253.84
2093.224,836.066,-166.835,596.702,-1540.0,-4418.75,761.25,-141.36,-256.88,-267.52
2093.2739,833.565,-164.334,595.665,-1408.75,-4873.75,665.0,-159.6,-255.36,-266.0
2093.3239,835.639,-165.127,595.299,-1548.75,-4777.5,840.0,-155.04,-261.44,-272.08
2093.3739,835.212,-165.859,595.787,-1505.0,-4698.75,402.5,-168.72,-255.36,-258.4
2093.4239,835.944,-163.663,596.58,-1548.75,-4707.5,332.5,-132.24,-244.72,-256.88
2093.4739,835.334,-164.761,596.946,-1662.5,-4550.0,332.5,-150.48,-264.48,-259.92
2093.5239,834.724,-165.005,594.323,-1505.0,-4681.25,813.75,-164.16,-256.88,-262.96
2093.5739,837.042,-164.456,598.654,-1435.0,-4742.5,805.0,-155.04,-244.72,-267.52
2093.6239,834.663,-164.273,596.092,-1627.5,-4585.0,393.75,-148.96,-249.28,-267.52
2093.6739,836.554,-164.944,595.909,-1400.0,-4707.5,341.25,-152.0,-250.8,-262.96
2093.7239,838.262,-164.578,596.397,-1452.5,-4515.0,455.0,-142.88,-270.56,-262.96
2093.7739,836.859,-163.846,596.885,-1452.5,-4891.25,726.25,-170.24,-247.76,-273.6
2093.8239,836.127,-163.541,597.678,-1522.5,-4471.25,682.5,-164.16,-247.76,-264.48
2093.8739,833.382,-164.578,595.726,-1680.0,-4593.75,315.0,-145.92,-253.84,-267.52
2093.9239,834.053,-165.127,598.959,-1653.75,-4532.5,402.5,-152.0,-261.44,-258.4
2093.9739,834.419,-162.382,595.665,-1443.75,-4637.5,463.75,-158.08,-258.4,-272.08
2094.0239,835.578,-164.334,597.617,-1557.5,-4803.75,700.0,-158.08,-252.32,-261.44
2094.0739,840.641,-164.761,594.384,-1513.75,-4725.0,595.0,-148.96,-259.92,-269.04
2094.1239,837.347,-165.188,595.482,-1505.0,-4523.75,402.5,-139.84,-240.16,-279.68
2094.1739,833.016,-162.992,596.519,-1548.75,-4506.25,638.75,-142.88,-255.36,-261.44
2094.2239,837.103,-167.506,596.153,-1478.75,-4690.0,665.0,-158.08,-253.84,-259.92
2094.2739,834.724,-165.066,597.007,-1531.25,-4593.75,665.0,-155.04,-255.36,-272.08
2094.3239,835.639,-165.737,596.397,-1540.0,-4532.5,437.5,-147.44,-252.32,-267.52
2094.3739,835.273,-165.005,597.129,-1531.25,-4602.5,358.75,-150.48,-247.76,-276.64
2094.4239,836.432,-164.273,595.299,-1470.0,-4742.5,656.25,-155.04,-267.52,-262.96
2094.4739,835.456,-164.944,594.933,-1505.0,-4558.75,831.25,-155.04,-250.8,-275.12
2094.5239,836.676,-163.175,595.726,-1592.5,-4550.0,577.5,-148.96,-249.28,-264.48
2094.574,834.846,-164.395,595.482,-1566.25,-4707.5,437.5,-150.48,-255.36,-273.6
2094.6239,834.907,-165.493,595.482,-1671.25,-4655.0,420.0,-159.6,-250.8,-261.44
2094.6739,834.663,-162.504,595.299,-1592.5,-4506.25,673.75,-159.6,-262.96,-267.52
2094.7239,837.042,-163.846,594.872,-1566.25,-4707.5,656.25,-153.52,-261.44,-256.88
2094.7739,836.798,-165.066,597.251,-1671.25,-4383.75,446.25,-148.96,-258.4,-273.6
2094.8239,836.798,-165.554,595.665,-1566.25,-4567.5,306.25,-147.44,-261.44,-272.08
2094.8739,837.713,-161.955,593.835,-1522.5,-4707.5,315.0,-155.04,-261.44,-279.68
2094.9239,835.456,-162.199,596.153,-1373.75,-4935.0,778.75,-164.16,-261.44,-270.56
2094.9739,837.408,-164.7,593.774,-1548.75,-4856.25,936.25,-171.76,-253.84,-273.6
2095.0239,836.493,-165.005,595.787,-1688.75,-4602.5,752.5,-152.0,-246.24,-270.56
2095.0739,835.517,-164.578,597.556,-1645.0,-4558.75,420.0,-142.88,-256.88,-270.56
2095.1239,834.297,-165.432,596.824,-1487.5,-4847.5,385.0,-150.48,-253.84,-269.04
2095.1739,835.395,-163.968,595.299,-1618.75,-4838.75,787.5,-162.64,-278.16,-267.52
2095.2239,837.103,-164.761,594.445,-1548.75,-4830.0,717.5,-133.76,-246.24,-262.96
2095.2739,836.127,-164.151,596.641,-1575.0,-4742.5,630.0,-144.4,-261.44,-272.08
2095.3239,835.395,-165.554,596.458,-1496.25,-4716.25,332.5,-158.08,-250.8,-270.56
2095.3739,835.395,-166.042,595.665,-1653.75,-4375.0,560.0,-162.64,-256.88,-267.52
2095.4239,836.249,-165.371,598.593,-1522.5,-4707.5,822.5,-170.24,-272.08,-266.0
2095.4739,836.798,-164.334,595.482,-1505.0,-4786.25,603.75,-145.92,-247.76,-279.68
2095.5239,837.652,-164.761,594.811,-1548.75,-4558.75,446.25,-127.68,-253.84,-278.16
2095.5739,837.469,-164.029,596.336,-1653.75,-4200.0,560.0,-141.36,-264.48,-264.48
2095.6239,834.053,-164.273,596.275,-1417.5,-4821.25,621.25,-144.4,-250.8,-266.0
2095.6739,835.578,-166.042,595.604,-1645.0,-4436.25,717.5,-153.52,-261.44,-275.12
2095.7239,836.005,-164.517,594.872,-1706.25,-4663.75,568.75,-153.52,-247.76,-258.4
2095.7739,835.822,-166.042,595.97,-1470.0,-4655.0,446.25,-145.92,-244.72,-252.32
2095.8239,836.371,-165.005,597.312,-1592.5,-4716.25,603.75,-148.96,-246.24,-264.48
2095.8739,835.395,-162.382,595.299,-1487.5,-5110.0,726.25,-147.44,-261.44,-256.88
2095.924,835.517,-163.724,595.848,-1496.25,-4690.0,717.5,-152.0,-240.16,-264.48
2095.9739,836.31,-164.212,595.726,-1627.5,-4480.0,472.5,-155.04,-261.44,-259.92
2096.0239,836.005,-165.493,593.347,-1443.75,-4777.5,306.25,-139.84,-240.16,-256.88
2096.0739,837.53,-166.469,594.628,-1583.75,-4663.75,647.5,-150.48,-262.96,-258.4
2096.1239,836.615,-166.896,596.153,-1487.5,-4690.0,857.5,-168.72,-259.92,-259.92
2096.1739,834.114,-163.907,593.408,-1452.5,-4655.0,761.25,-147.44,-256.88,-272.08
2096.2239,834.358,-164.029,595.848,-1715.0,-4576.25,525.0,-145.92,-262.96,-267.52
2096.2739,837.225,-163.297,597.434,-1251.25,-4908.75,253.75,-152.0,-246.24,-264.48
2096.3239,836.981,-163.541,597.007,-1828.75,-4051.25,385.0,-153.52,-262.96,-275.12
2096.3739,835.883,-165.066,598.288,-1592.5,-4278.75,778.75,-155.04,-264.48,-259.92
2096.4239,834.602,-165.249,596.763,-1470.0,-4803.75,796.25,-150.48,-240.16,-261.44
2096.4739,836.737,-164.7,594.933,-1540.0,-4777.5,420.0,-145.92,-237.12,-276.64
2096.5239,835.822,-164.7,596.58,-1636.25,-4506.25,490.0,-156.56,-252.32,-258.4
2096.5739,834.968,-165.737,595.909,-1443.75,-4611.25,472.5,-173.28,-261.44,-270.56
2096.6239,837.042,-167.628,594.384,-1295.0,-4795.0,787.5,-136.8,-246.24,-266.0
2096.6739,836.493,-164.09,596.641,-1627.5,-4716.25,787.5,-156.56,-250.8,-272.08
2096.7239,834.419,-163.236,596.763,-1487.5,-4436.25,358.75,-145.92,-250.8,-258.4
2096.7739,835.456,-162.321,595.116,-1592.5,-4602.5,498.75,-144.4,-255.36,-267.52
2096.8239,836.432,-165.92,596.031,-1522.5,-4401.25,463.75,-155.04,-261.44,-269.04
2096.8739,833.626,-165.676,594.75,-1505.0,-4751.25,787.5,-156.56,-258.4,-270.56
2096.9239,836.554,-166.469,595.97,-1531.25,-4733.75,560.0,-147.44,-264.48,-264.48
2096.9739,838.14,-163.48,594.811,-1540.0,-4480.0,472.5,-152.0,-269.04,-278.16
2097.0239,837.164,-164.7,596.763,-1636.25,-4593.75,437.5,-152.0,-252.32,-278.16
2097.0739,836.859,-164.212,597.068,-1452.5,-4690.0,673.75,-164.16,-258.4,-266.0
2097.1239,836.066,-165.005,598.105,-1470.0,-4532.5,603.75,-150.48,-256.88,-272.08
2097.1739,837.347,-164.883,595.238,-1627.5,-4567.5,420.0,-152.0,-241.68,-273.6
2097.2239,832.589,-163.663,598.776,-1636.25,-4681.25,490.0,-145.92,-252.32,-272.08
2097.274,835.456,-164.395,596.824,-1435.0,-4821.25,665.0,-156.56,-261.44,-262.96
2097.3239,836.127,-165.371,595.36,-1496.25,-4908.75,787.5,-159.6,-256.88,-279.68
2097.3739,835.883,-165.798,596.031,-1601.25,-4550.0,411.25,-145.92,-249.28,-269.04
2097.4239,836.493,-164.395,597.007,-1557.5,-4716.25,533.75,-142.88,-246.24,-264.48
2097.4739,835.944,-164.334,593.896,-1723.75,-4768.75,428.75,-148.96,-252.32,-259.92
2097.5239,838.018,-165.737,595.055,-1627.5,-4585.0,796.25,-167.2,-270.56,-273.6
2097.5739,833.992,-165.066,596.946,-1435.0,-4681.25,673.75,-158.08,-259.92,-264.48
2097.6239,834.724,-164.212,595.97,-1583.75,-4628.75,455.0,-130.72,-253.84,-275.12
2097.6739,833.504,-164.09,594.933,-1671.25,-4663.75,315.0,-150.48,-247.76,-273.6
2097.7239,835.7,-165.188,596.641,-1505.0,-4681.25,332.5,-142.88,-255.36,-266.0
2097.7739,838.384,-165.188,596.519,-1356.25,-4620.0,761.25,-159.6,-267.52,-272.08
2097.8239,836.554,-165.981,597.434,-1627.5,-4541.25,778.75,-150.48,-261.44,-267.52
2097.8739,835.456,-165.798,594.262,-1531.25,-4830.0,577.5,-135.28,-253.84,-259.92
2097.9239,837.164,-164.883,592.798,-1566.25,-4716.25,411.25,-142.88,-250.8,-267.52
2097.9739,835.761,-164.151,594.323,-1645.0,-4480.0,393.75,-165.68,-253.84,-273.6
2098.0239,834.419,-164.944,593.042,-1522.5,-4585.0,813.75,-158.08,-264.48,-258.4
2098.0739,835.212,-164.883,595.97,-1408.75,-5013.75,647.5,-161.12,-253.84,-272.08
2098.1239,836.493,-163.846,595.909,-1435.0,-4873.75,630.0,-142.88,-253.84,-267.52
2098.1739,834.297,-163.297,596.092,-1601.25,-4760.0,402.5,-150.48,-270.56,-267.52
2098.2239,835.761,-163.663,596.519,-1618.75,-4637.5,507.5,-161.12,-255.36,-269.04
2098.2739,836.798,-164.395,596.214,-1618.75,-4751.25,726.25,-138.32,-250.8,-264.48
2098.3239,833.077,-164.395,595.421,-1443.75,-4646.25,551.25,-156.56,-246.24,-276.64
2098.3739,836.31,-167.018,595.848,-1601.25,-4777.5,472.5,-153.52,-253.84,-273.6
2098.4239,835.944,-165.432,594.811,-1557.5,-4803.75,560.0,-159.6,-264.48,-258.4
2098.4739,834.968,-166.225,594.445,-1557.5,-4558.75,533.75,-153.52,-256.88,-270.56
2098.5239,837.53,-164.578,598.288,-1557.5,-4716.25,805.0,-155.04,-253.84,-266.0
2098.5739,834.968,-165.615,593.774,-1566.25,-4523.75,507.5,-153.52,-261.44,-281.2
2098.624,837.286,-164.639,596.153,-1566.25,-4812.5,446.25,-164.16,-255.36,-276.64
2098.6739,834.602,-162.687,596.519,-1575.0,-4410.0,577.5,-152.0,-250.8,-275.12
2098.7239,835.212,-165.554,596.214,-1505.0,-4716.25,778.75,-165.68,-243.2,-267.52
2098.7739,834.907,-166.164,594.933,-1610.0,-4786.25,866.25,-145.92,-261.44,-267.52
2098.8239,838.445,-164.761,594.933,-1540.0,-4567.5,428.75,-162.64,-272.08,-266.0
2098.8739,835.456,-164.517,598.715,-1566.25,-4672.5,385.0,-162.64,-252.32,-255.36
2098.9239,836.005,-162.748,593.957,-1531.25,-4690.0,708.75,-141.36,-266.0,-284.24
2098.9739,837.713,-163.236,596.519,-1408.75,-4707.5,822.5,-147.44,-249.28,-266.0
2099.0239,836.432,-165.432,597.556,-1461.25,-4602.5,682.5,-152.0,-249.28,-253.84
2099.0739,836.066,-164.09,597.068,-1548.75,-4515.0,463.75,-164.16,-247.76,-264.48
2099.1239,836.127,-163.785,594.75,-1557.5,-4795.0,341.25,-144.4,-252.32,-267.52
2099.1739,835.883,-165.615,596.824,-1496.25,-4375.0,428.75,-136.8,-249.28,-273.6
2099.2239,837.347,-165.92,595.787,-1557.5,-4532.5,848.75,-147.44,-261.44,-267.52
2099.2739,833.138,-165.859,596.214,-1478.75,-4655.0,726.25,-152.0,-266.0,-262.96
2099.3239,836.005,-165.249,596.519,-1662.5,-4506.25,385.0,-153.52,-264.48,-275.12
2099.3739,834.907,-165.615,595.726,-1548.75,-4628.75,271.25,-153.52,-246.24,-278.16
2099.4239,833.443,-162.26,597.922,-1548.75,-4768.75,542.5,-147.44,-249.28,-273.6
2099.4739,835.639,-165.249,597.434,-1505.0,-4690.0,770.0,-141.36,-250.8,-267.52
2099.5239,836.493,-166.53,595.604,-1470.0,-5048.75,603.75,-158.08,-261.44,-250.8
2099.5739,836.676,-165.31,595.726,-1566.25,-4663.75,341.25,-150.48,-261.44,-266.0
2099.6239,833.809,-160.918,594.75,-1531.25,-4620.0,463.75,-153.52,-246.24,-264.48
2099.6739,834.663,-164.822,594.933,-1575.0,-4891.25,603.75,-153.52,-259.92,-270.56
2099.7239,834.114,-162.382,598.654,-1531.25,-4663.75,708.75,-144.4,-249.28,-266.0
2099.7739,833.077,-166.408,595.909,-1557.5,-4856.25,595.0,-155.04,-262.96,-272.08
2099.8239,832.284,-160.796,595.482,-1540.0,-4768.75,507.5,-155.04,-253.84,-272.08
2099.8739,836.432,-167.018,596.641,-1487.5,-4681.25,542.5,-148.96,-246.24,-273.6
2099.9239,832.894,-164.822,596.58,-1443.75,-4576.25,726.25,-142.88,-253.84,-258.4
2099.974,835.822,-163.114,597.312,-1610.0,-4663.75,691.25,-155.04,-244.72,-261.44
2100.0239,835.09,-165.432,596.885,-1522.5,-4576.25,402.5,-158.08,-264.48,-255.36
2100.0739,835.761,-163.236,595.543,-1531.25,-4882.5,402.5,-145.92,-249.28,-276.64
2100.1239,835.273,-164.395,596.58,-1513.75,-4532.5,612.5,-152.0,-261.44,-261.44
2100.1739,834.236,-165.371,595.36,-1338.75,-4681.25,735.0,-161.12,-253.84,-262.96
2100.2239,834.907,-164.944,595.726,-1443.75,-4681.25,463.75,-156.56,-264.48,-256.88
2100.2739,836.31,-166.53,597.19,-1531.25,-4663.75,341.25,-156.56,-266.0,-266.0
2100.3239,836.493,-165.31,596.458,-1583.75,-4418.75,315.0,-152.0,-255.36,-259.92
2100.3739,835.456,-164.456,593.957,-1557.5,-4637.5,770.0,-147.44,-255.36,-264.48
2100.4239,835.822,-163.297,597.8,-1400.0,-4751.25,682.5,-147.44,-249.28,-272.08
2100.4739,835.456,-165.676,594.628,-1592.5,-4672.5,463.75,-147.44,-270.56,-258.4
2100.5239,835.578,-162.443,594.628,-1470.0,-4462.5,218.75,-155.04,-253.84,-281.2
2100.5739,836.737,-164.7,595.543,-1601.25,-4768.75,455.0,-139.84,-249.28,-261.44
2100.6239,837.347,-166.103,595.97,-1408.75,-4602.5,568.75,-138.32,-249.28,-269.04
2100.6739,833.382,-164.334,596.153,-1636.25,-4742.5,848.75,-158.08,-250.8,-259.92
2100.7239,836.615,-165.31,596.641,-1461.25,-4891.25,717.5,-162.64,-256.88,-269.04
2100.7739,836.92,-165.981,596.214,-1496.25,-4655.0,306.25,-147.44,-258.4,-284.24
2100.8239,838.567,-164.761,595.177,-1575.0,-4480.0,437.5,-148.96,-262.96,-262.96
2100.8739,836.798,-165.554,593.896,-1592.5,-4768.75,901.25,-138.32,-256.88,-269.04
2100.9239,834.846,-166.164,595.848,-1461.25,-4847.5,665.0,-159.6,-241.68,-261.44
2100.9739,834.419,-164.029,594.933,-1575.0,-4812.5,542.5,-161.12,-253.84,-275.12
2101.0239,836.676,-163.663,597.434,-1653.75,-4296.25,428.75,-144.4,-249.28,-266.0
2101.0739,836.127,-163.541,594.018,-1505.0,-4943.75,621.25,-174.8,-246.24,-270.56
2101.1239,837.835,-163.663,596.214,-1426.25,-4882.5,665.0,-155.04,-259.92,-253.84
2101.1739,838.933,-164.334,596.58,-1461.25,-4655.0,551.25,-158.08,-266.0,-255.36
2101.2239,834.663,-163.968,595.604,-1575.0,-4488.75,472.5,-129.2,-240.16,-275.12
2101.2739,836.493,-164.334,596.397,-1697.5,-4427.5,498.75,-150.48,-252.32,-275.12
2101.324,834.968,-165.554,593.835,-1531.25,-4532.5,621.25,-153.52,-261.44,-266.0
2101.3739,835.883,-163.846,594.75,-1452.5,-5101.25,813.75,-168.72,-253.84,-253.84
2101.4239,831.857,-164.151,596.031,-1461.25,-4803.75,612.5,-152.0,-255.36,-259.92
2101.4739,836.676,-165.676,595.238,-1601.25,-4830.0,498.75,-142.88,-241.68,-273.6
2101.5239,835.761,-162.931,594.872,-1426.25,-4663.75,665.0,-147.44,-256.88,-269.04
2101.5739,835.151,-165.371,599.203,-1610.0,-4497.5,752.5,-155.04,-255.36,-258.4
2101.6239,833.809,-165.798,595.787,-1470.0,-4821.25,735.0,-159.6,-270.56,-261.44
2101.6739,836.371,-165.493,597.434,-1557.5,-4523.75,376.25,-150.48,-255.36,-269.04
2101.7239,836.005,-164.273,594.506,-1435.0,-4558.75,306.25,-153.52,-249.28,-275.12
2101.7739,833.931,-164.761,593.042,-1426.25,-4550.0,796.25,-145.92,-244.72,-269.04
2101.8239,836.188,-165.859,597.678,-1435.0,-4935.0,673.75,-159.6,-253.84,-270.56
2101.8739,835.761,-163.053,593.957,-1531.25,-4523.75,787.5,-148.96,-247.76,-267.52
2101.9239,834.114,-163.236,597.495,-1522.5,-4497.5,411.25,-158.08,-264.48,-275.12
2101.9739,836.859,-164.029,596.763,-1461.25,-4733.75,420.0,-141.36,-249.28,-259.92
2102.0239,833.748,-164.395,595.36,-1627.5,-4777.5,481.25,-147.44,-238.64,-258.4
2102.0739,832.833,-164.883,596.702,-1365.0,-4847.5,796.25,-158.08,-256.88,-266.0
2102.1239,835.395,-164.029,595.421,-1373.75,-4655.0,638.75,-159.6,-250.8,-262.96
2102.1739,834.053,-164.334,595.36,-1513.75,-4690.0,341.25,-147.44,-247.76,-272.08
2102.2239,836.188,-164.7,596.458,-1373.75,-4873.75,341.25,-144.4,-253.84,-264.48
2102.2739,836.188,-164.578,597.617,-1723.75,-4261.25,533.75,-164.16,-250.8,-246.24
2102.3239,835.456,-166.469,595.848,-1662.5,-4480.0,743.75,-144.4,-264.48,-270.56
2102.3739,835.639,-165.188,595.909,-1575.0,-4760.0,621.25,-158.08,-261.44,-267.52
2102.4239,836.371,-163.785,595.604,-1496.25,-4611.25,385.0,-142.88,-261.44,-279.68
2102.4739,836.615,-165.676,597.678,-1601.25,-4576.25,621.25,-136.8,-253.84,-278.16
2102.5239,836.859,-164.151,596.397,-1513.75,-4646.25,717.5,-152.0,-261.44,-259.92
2102.5739,834.419,-166.957,594.933,-1496.25,-5022.5,560.0,-156.56,-272.08,-272.08
2102.6239,834.968,-164.883,594.567,-1662.5,-4637.5,603.75,-155.04,-264.48,-266.0
2102.674,834.907,-162.382,598.41,-1531.25,-4663.75,350.0,-167.2,-240.16,-273.6
2102.7239,836.005,-164.273,596.092,-1470.0,-4681.25,481.25,-144.4,-259.92,-256.88
2102.7739,837.164,-166.042,596.397,-1583.75,-4532.5,735.0,-142.88,-250.8,-285.76
2102.8239,836.066,-165.371,595.909,-1592.5,-4550.0,507.5,-168.72,-255.36,-272.08
2102.8739,834.968,-165.798,595.116,-1426.25,-4786.25,463.75,-142.88,-258.4,-256.88
2102.9239,837.469,-164.578,597.251,-1461.25,-4532.5,402.5,-135.28,-243.2,-273.6
2102.9739,834.785,-163.968,593.53,-1321.25,-4943.75,647.5,-135.28,-256.88,-270.56
2103.0239,835.944,-165.981,595.177,-1592.5,-4628.75,761.25,-152.0,-246.24,-267.52
2103.0739,834.663,-164.7,594.75,-1522.5,-4541.25,411.25,-165.68,-252.32,-273.6
2103.1239,837.591,-165.615,594.567,-1627.5,-4751.25,411.25,-155.04,-247.76,-262.96
2103.1739,838.201,-163.968,593.957,-1671.25,-4366.25,393.75,-142.88,-256.88,-259.92
2103.2239,834.419,-165.005,595.848,-1452.5,-4532.5,612.5,-159.6,-259.92,-275.12
2103.2739,835.151,-163.724,592.859,-1452.5,-4987.5,726.25,-155.04,-253.84,-264.48
2103.3239,833.138,-164.395,593.835,-1540.0,-4620.0,420.0,-136.8,-255.36,-256.88
2103.3739,836.859,-165.92,594.384,-1540.0,-4628.75,341.25,-142.88,-259.92,-261.44
2103.4239,836.554,-163.968,595.97,-1478.75,-4698.75,367.5,-159.6,-244.72,-261.44
2103.4739,837.286,-164.151,596.214,-1601.25,-4725.0,866.25,-162.64,-256.88,-288.8
2103.5239,835.822,-164.334,597.434,-1400.0,-4725.0,735.0,-153.52,-249.28,-255.36
2103.5739,835.09,-166.591,594.201,-1671.25,-4786.25,691.25,-147.44,-250.8,-273.6
2103.6239,834.724,-163.236,596.275,-1583.75,-4322.5,393.75,-147.44,-267.52,-269.04
2103.6739,837.103,-167.079,595.482,-1443.75,-4865.0,463.75,-145.92,-264.48,-276.64
2103.7239,836.188,-164.273,595.36,-1391.25,-4803.75,630.0,-144.4,-267.52,-278.16
2103.7739,837.896,-164.822,597.678,-1601.25,-4558.75,752.5,-165.68,-244.72,-275.12
2103.8239,835.212,-164.09,596.214,-1391.25,-5048.75,612.5,-145.92,-252.32,-267.52
2103.8739,836.188,-163.724,596.031,-1452.5,-4900.0,428.75,-135.28,-252.32,-272.08
2103.9239,836.005,-164.212,594.933,-1522.5,-4418.75,595.0,-139.84,-269.04,-256.88
2103.9739,837.164,-163.846,598.227,-1417.5,-4655.0,778.75,-148.96,-259.92,-267.52
2104.0241,837.225,-166.408,596.275,-1522.5,-4943.75,700.0,-152.0,-250.8,-256.88
2104.0739,836.249,-165.066,596.275,-1741.25,-4322.5,516.25,-150.48,-255.36,-258.4
2104.1239,836.554,-164.761,596.153,-1487.5,-4541.25,533.75,-156.56,-270.56,-270.56
2104.1739,836.31,-164.029,594.75,-1645.0,-4707.5,656.25,-145.92,-244.72,-269.04
2104.2239,837.713,-165.493,594.079,-1452.5,-4900.0,761.25,-144.4,-234.08,-273.6
2104.2739,834.846,-164.822,595.726,-1610.0,-4541.25,481.25,-161.12,-255.36,-258.4
2104.3239,836.615,-164.639,595.726,-1496.25,-4646.25,420.0,-158.08,-246.24,-264.48
2104.3739,835.578,-164.395,595.848,-1321.25,-4637.5,472.5,-153.52,-256.88,-259.92
2104.4239,837.652,-165.31,595.238,-1662.5,-4628.75,708.75,-156.56,-250.8,-266.0
2104.4739,834.785,-165.005,597.068,-1557.5,-4873.75,796.25,-132.24,-255.36,-270.56
2104.5239,833.748,-163.297,597.19,-1557.5,-4532.5,428.75,-159.6,-267.52,-285.76
2104.5739,837.652,-164.761,598.288,-1496.25,-4760.0,385.0,-153.52,-252.32,-281.2
2104.6239,835.944,-165.066,595.848,-1435.0,-4558.75,726.25,-144.4,-269.04,-261.44
2104.6739,835.944,-164.822,595.665,-1373.75,-4987.5,743.75,-161.12,-244.72,-273.6
2104.7239,836.859,-165.859,595.482,-1548.75,-4795.0,743.75,-147.44,-266.0,-269.04
2104.7739,835.944,-164.273,594.262,-1470.0,-4655.0,437.5,-152.0,-258.4,-259.92
2104.8239,833.748,-163.053,595.604,-1592.5,-4690.0,428.75,-158.08,-240.16,-267.52
2104.8739,833.138,-165.249,598.471,-1496.25,-4523.75,516.25,-155.04,-249.28,-269.04
2104.9239,835.273,-166.957,593.652,-1496.25,-4725.0,805.0,-133.76,-258.4,-253.84
2104.9739,835.822,-164.09,595.97,-1286.25,-4838.75,735.0,-153.52,-258.4,-266.0
2105.0239,834.541,-162.26,596.702,-1470.0,-4646.25,402.5,-148.96,-250.8,-252.32
2105.0739,834.968,-165.615,596.153,-1557.5,-4558.75,350.0,-162.64,-246.24,-275.12
2105.1239,835.822,-163.297,595.665,-1610.0,-4567.5,472.5,-142.88,-258.4,-273.6
2105.1739,835.822,-163.48,593.835,-1496.25,-4821.25,752.5,-141.36,-264.48,-266.0
2105.2239,836.371,-165.798,594.445,-1706.25,-4672.5,717.5,-164.16,-259.92,-275.12
2105.2739,835.944,-163.297,594.079,-1566.25,-4611.25,393.75,-159.6,-256.88,-261.44
2105.3239,838.384,-164.578,595.97,-1461.25,-4891.25,446.25,-135.28,-241.68,-266.0
2105.374,834.785,-163.785,596.885,-1557.5,-4602.5,840.0,-138.32,-252.32,-270.56
2105.4239,834.724,-166.408,596.946,-1575.0,-4970.0,743.75,-158.08,-272.08,-266.0
2105.4739,836.188,-166.103,594.933,-1461.25,-4576.25,455.0,-150.48,-262.96,-275.12
2105.5239,834.358,-163.236,595.543,-1566.25,-4620.0,507.5,-145.92,-255.36,-264.48
2105.5739,839.238,-164.761,596.031,-1557.5,-4593.75,691.25,-138.32,-246.24,-275.12
2105.6239,836.676,-164.09,596.519,-1522.5,-4716.25,796.25,-152.0,-261.44,-279.68
2105.6739,836.859,-165.127,597.068,-1470.0,-4585.0,560.0,-153.52,-247.76,-278.16
2105.7239,835.822,-165.371,595.604,-1557.5,-4821.25,463.75,-156.56,-247.76,-252.32
2105.7739,837.774,-163.419,594.933,-1531.25,-4515.0,393.75,-158.08,-246.24,-272.08
2105.8239,836.249,-164.883,596.885,-1548.75,-4593.75,717.5,-135.28,-266.0,-266.0
2105.8739,834.968,-164.273,595.299,-1443.75,-4567.5,708.75,-161.12,-266.0,-267.52
2105.9239,839.177,-164.029,596.702,-1706.25,-4585.0,577.5,-153.52,-252.32,-270.56
2105.9739,836.737,-165.615,595.177,-1487.5,-4742.5,323.75,-145.92,-258.4,-253.84
2106.0239,834.175,-164.639,593.957,-1566.25,-4646.25,437.5,-145.92,-255.36,-272.08
2106.0739,837.164,-167.018,595.543,-1487.5,-4392.5,743.75,-153.52,-255.36,-270.56
2106.1239,834.48,-166.408,596.153,-1330.0,-4830.0,708.75,-150.48,-261.44,-276.64
2106.1739,835.883,-164.944,593.347,-1417.5,-4742.5,393.75,-161.12,-256.88,-266.0
2106.2239,835.395,-164.029,593.957,-1636.25,-4471.25,455.0,-155.04,-249.28,-253.84
2106.2739,833.321,-165.554,596.336,-1435.0,-4751.25,411.25,-147.44,-244.72,-278.16
2106.3239,835.578,-164.761,596.336,-1583.75,-4593.75,726.25,-145.92,-266.0,-270.56
2106.3739,834.724,-163.785,597.434,-1452.5,-4803.75,787.5,-147.44,-258.4,-267.52
2106.4239,836.432,-163.053,596.275,-1601.25,-4716.25,726.25,-173.28,-255.36,-276.64
2106.4739,836.127,-164.883,594.933,-1583.75,-4471.25,367.5,-159.6,-243.2,-249.28
2106.5239,835.09,-162.626,596.275,-1443.75,-4768.75,472.5,-141.36,-252.32,-272.08
2106.5739,834.907,-165.188,593.652,-1408.75,-4900.0,700.0,-141.36,-261.44,-264.48
2106.6239,833.565,-166.164,592.615,-1513.75,-4567.5,612.5,-152.0,-250.8,-258.4
2106.6739,835.456,-164.334,594.567,-1470.0,-4926.25,568.75,-150.48,-267.52,-272.08
2106.7241,834.541,-164.822,595.848,-1505.0,-4392.5,455.0,-147.44,-253.84,-273.6
2106.7739,837.103,-164.883,594.506,-1443.75,-4882.5,577.5,-161.12,-249.28,-273.6
2106.8239,835.639,-163.663,594.323,-1382.5,-4760.0,551.25,-141.36,-253.84,-267.52
2106.8739,836.615,-164.883,597.739,-1496.25,-4681.25,621.25,-168.72,-253.84,-267.52
2106.9239,836.371,-165.127,596.031,-1540.0,-4943.75,577.5,-159.6,-253.84,-267.52
2106.9739,836.31,-165.31,598.105,-1461.25,-4576.25,437.5,-147.44,-256.88,-266.0
2107.0239,835.944,-164.212,597.739,-1505.0,-4558.75,647.5,-153.52,-249.28,-259.92
2107.0739,838.445,-164.944,597.312,-1470.0,-4830.0,647.5,-153.52,-244.72,-259.92
2107.1239,837.225,-165.371,595.97,-1470.0,-4803.75,463.75,-161.12,-272.08,-264.48
2107.1739,833.565,-163.236,598.288,-1557.5,-4690.0,428.75,-150.48,-244.72,-262.96
2107.2239,837.103,-166.774,596.336,-1548.75,-4663.75,647.5,-148.96,-261.44,-262.96
2107.2739,834.907,-165.981,594.506,-1557.5,-4716.25,796.25,-153.52,-252.32,-272.08
2107.3239,836.188,-164.517,595.36,-1583.75,-4611.25,726.25,-153.52,-258.4,-261.44
2107.3739,835.456,-164.395,596.824,-1575.0,-4480.0,516.25,-152.0,-258.4,-272.08
2107.4239,835.761,-164.029,598.776,-1583.75,-4523.75,288.75,-164.16,-269.04,-273.6
2107.4739,836.066,-165.31,597.556,-1452.5,-4856.25,743.75,-148.96,-246.24,-278.16
2107.5239,836.371,-165.005,595.36,-1382.5,-4742.5,691.25,-161.12,-256.88,-266.0
2107.5739,836.554,-166.774,599.264,-1583.75,-4707.5,752.5,-161.12,-266.0,-262.96
2107.6239,837.469,-165.371,594.994,-1575.0,-4331.25,341.25,-153.52,-275.12,-279.68
2107.6739,835.273,-164.761,596.946,-1627.5,-4340.0,393.75,-155.04,-256.88,-270.56
2107.7239,834.419,-165.615,595.665,-1391.25,-4821.25,455.0,-150.48,-252.32,-261.44
2107.7739,834.419,-163.785,598.593,-1478.75,-5031.25,822.5,-162.64,-238.64,-275.12
2107.8239,833.382,-165.859,597.373,-1365.0,-4952.5,682.5,-165.68,-255.36,-276.64
2107.8739,837.957,-164.212,596.153,-1496.25,-4777.5,385.0,-159.6,-255.36,-256.88
2107.9239,834.602,-164.944,597.556,-1548.75,-4663.75,463.75,-155.04,-259.92,-272.08
2107.9739,834.175,-163.419,599.325,-1540.0,-4760.0,577.5,-156.56,-272.08,-267.52
2108.0239,834.968,-166.591,595.421,-1575.0,-4725.0,743.75,-148.96,-267.52,-262.96
2108.0741,835.7,-164.761,594.811,-1566.25,-4716.25,630.0,-155.04,-261.44,-262.96
2108.1239,835.151,-164.09,597.678,-1715.0,-4392.5,463.75,-153.52,-262.96,-270.56
2108.1739,836.371,-164.151,592.249,-1373.75,-4620.0,472.5,-138.32,-258.4,-272.08
2108.2239,836.066,-164.7,595.726,-1487.5,-4637.5,595.0,-139.84,-278.16,-281.2
2108.2739,836.615,-164.395,595.726,-1452.5,-4663.75,726.25,-136.8,-273.6,-276.64
2108.3239,836.31,-163.419,595.299,-1540.0,-4655.0,402.5,-158.08,-255.36,-272.08
2108.3739,837.652,-165.493,595.97,-1496.25,-4436.25,358.75,-162.64,-261.44,-259.92
2108.4239,833.87,-165.676,598.227,-1653.75,-4497.5,586.25,-161.12,-261.44,-259.92
2108.4739,836.92,-165.554,596.153,-1400.0,-5048.75,665.0,-145.92,-267.52,-272.08
2108.5239,838.079,-165.31,593.652,-1522.5,-4838.75,647.5,-145.92,-250.8,-275.12
2108.5739,834.968,-164.7,595.238,-1540.0,-4410.0,385.0,-161.12,-261.44,-273.6
2108.6239,835.761,-162.504,596.458,-1487.5,-4445.0,367.5,-156.56,-250.8,-269.04
2108.6739,834.297,-165.676,594.567,-1496.25,-4733.75,743.75,-150.48,-250.8,-269.04
2108.7239,836.127,-163.297,595.848,-1618.75,-4733.75,691.25,-136.8,-247.76,-276.64
2108.7739,836.859,-165.615,595.604,-1671.25,-4480.0,516.25,-141.36,-267.52,-272.08
2108.8239,834.419,-164.822,595.543,-1557.5,-4777.5,332.5,-158.08,-261.44,-273.6
2108.8739,837.774,-164.09,596.092,-1566.25,-4768.75,341.25,-145.92,-241.68,-278.16
2108.9239,837.347,-165.676,593.225,-1391.25,-4690.0,708.75,-139.84,-234.08,-267.52
2108.9739,834.541,-165.005,597.922,-1382.5,-4891.25,770.0,-153.52,-258.4,-273.6
2109.0239,837.042,-166.591,595.97,-1618.75,-4830.0,385.0,-155.04,-264.48,-275.12
2109.0739,835.639,-165.798,596.763,-1513.75,-4550.0,280.0,-141.36,-244.72,-266.0
2109.1239,835.09,-165.188,593.774,-1575.0,-4436.25,393.75,-147.44,-249.28,-275.12
2109.1739,835.029,-164.334,598.654,-1373.75,-4812.5,708.75,-135.28,-244.72,-276.64
2109.2239,836.676,-163.419,596.397,-1505.0,-4795.0,700.0,-147.44,-258.4,-276.64
2109.2739,835.944,-164.395,595.116,-1461.25,-4768.75,621.25,-162.64,-253.84,-252.32
2109.3239,837.103,-164.944,595.482,-1645.0,-4515.0,437.5,-150.48,-272.08,-276.64
2109.3739,835.944,-165.92,599.386,-1470.0,-4506.25,393.75,-152.0,-255.36,-270.56
2109.4239,835.395,-165.554,595.909,-1513.75,-4786.25,787.5,-145.92,-255.36,-262.96
2109.4739,838.262,-163.297,595.421,-1636.25,-4611.25,735.0,-153.52,-270.56,-266.0
2109.524,834.358,-165.188,595.36,-1662.5,-4585.0,630.0,-159.6,-259.92,-258.4
2109.5739,835.7,-164.822,598.044,-1522.5,-4436.25,463.75,-152.0,-269.04,-279.68
2109.6239,835.517,-163.785,596.031,-1443.75,-4628.75,498.75,-150.48,-258.4,-266.0
2109.6739,836.92,-165.432,597.434,-1365.0,-4847.5,638.75,-136.8,-250.8,-258.4
2109.7239,838.994,-163.114,596.641,-1636.25,-4445.0,638.75,-147.44,-247.76,-264.48
2109.7739,835.029,-165.554,596.885,-1505.0,-4628.75,402.5,-177.84,-262.96,-259.92
2109.8239,835.822,-165.554,595.543,-1583.75,-4541.25,630.0,-145.92,-266.0,-276.64
2109.8739,837.835,-166.164,594.567,-1531.25,-4506.25,752.5,-150.48,-250.8,-282.72
2109.9239,832.833,-164.822,598.471,-1303.75,-4970.0,717.5,-158.08,-256.88,-256.88
2109.9739,834.48,-165.31,594.872,-1426.25,-4768.75,525.0,-158.08,-247.76,-261.44
2110.0239,836.188,-164.029,595.543,-1548.75,-4488.75,420.0,-153.52,-252.32,-281.2
2110.0739,835.09,-166.164,594.75,-1470.0,-4803.75,752.5,-155.04,-255.36,-262.96
2110.1239,835.334,-165.737,593.286,-1505.0,-4777.5,638.75,-141.36,-259.92,-272.08
2110.1739,838.262,-164.273,592.615,-1583.75,-4768.75,761.25,-142.88,-258.4,-266.0
2110.2239,835.151,-166.103,596.519,-1645.0,-4611.25,385.0,-155.04,-255.36,-264.48
2110.2739,836.554,-165.554,595.909,-1505.0,-4821.25,367.5,-144.4,-269.04,-269.04
2110.3239,834.968,-163.541,596.763,-1347.5,-4821.25,682.5,-152.0,-244.72,-270.56
2110.3739,837.591,-163.114,596.763,-1277.5,-4891.25,848.75,-156.56,-237.12,-258.4
2110.4239,838.384,-165.188,595.482,-1557.5,-4760.0,770.0,-141.36,-270.56,-258.4
2110.4739,834.724,-165.737,594.75,-1618.75,-4532.5,420.0,-145.92,-256.88,-259.92
2110.5239,836.92,-167.567,593.774,-1636.25,-4593.75,385.0,-155.04,-253.84,-264.48
2110.5739,835.944,-163.602,597.617,-1435.0,-4602.5,446.25,-144.4,-247.76,-267.52
2110.6239,832.345,-164.456,597.312,-1417.5,-4830.0,752.5,-155.04,-247.76,-278.16
2110.6739,836.249,-164.029,595.726,-1443.75,-4681.25,673.75,-159.6,-258.4,-285.76
2110.7239,837.103,-164.639,596.58,-1513.75,-4812.5,367.5,-161.12,-269.04,-258.4
2110.7739,834.785,-164.578,595.177,-1478.75,-4681.25,402.5,-148.96,-272.08,-266.0
2110.8239,835.883,-165.371,594.567,-1575.0,-4375.0,402.5,-167.2,-243.2,-259.92
2110.874,835.395,-163.846,595.421,-1575.0,-4576.25,726.25,-156.56,-258.4,-270.56
2110.9239,837.652,-163.602,595.299,-1548.75,-4725.0,542.5,-173.28,-272.08,-275.12
2110.9739,836.005,-163.724,595.299,-1662.5,-4375.0,481.25,-170.24,-252.32,-284.24
2111.0239,836.066,-163.968,599.02,-1470.0,-4777.5,455.0,-164.16,-247.76,-272.08
2111.0739,836.554,-165.981,593.774,-1531.25,-4471.25,700.0,-139.84,-250.8,-256.88
2111.1239,834.541,-166.53,597.19,-1373.75,-4725.0,612.5,-148.96,-264.48,-262.96
2111.1739,835.273,-163.053,596.824,-1575.0,-4593.75,568.75,-158.08,-266.0,-258.4
2111.2239,836.676,-165.493,596.763,-1548.75,-4620.0,420.0,-153.52,-259.92,-266.0
2111.2739,836.737,-165.432,593.652,-1522.5,-4716.25,630.0,-150.48,-258.4,-272.08
2111.3239,834.541,-165.554,595.604,-1470.0,-4611.25,708.75,-139.84,-256.88,-264.48
2111.3739,834.968,-163.968,596.946,-1540.0,-4698.75,402.5,-158.08,-261.44,-279.68
2111.4239,835.944,-163.785,593.164,-1531.25,-4620.0,455.0,-152.0,-249.28,-256.88
2111.4739,835.761,-164.578,596.519,-1653.75,-4506.25,376.25,-138.32,-261.44,-255.36
2111.5239,833.321,-165.066,598.654,-1680.0,-4593.75,708.75,-156.56,-249.28,-266.0
2111.5739,834.48,-166.896,595.299,-1505.0,-4716.25,700.0,-156.56,-262.96,-272.08
2111.6239,837.103,-165.066,594.567,-1531.25,-4663.75,446.25,-156.56,-249.28,-270.56
2111.6739,835.7,-164.517,594.994,-1487.5,-4663.75,341.25,-148.96,-253.84,-256.88
2111.7239,835.151,-165.493,598.288,-1505.0,-4506.25,507.5,-170.24,-246.24,-253.84
2111.7739,832.772,-164.7,595.055,-1531.25,-4786.25,726.25,-155.04,-250.8,-261.44
2111.8239,837.042,-163.236,593.652,-1557.5,-4655.0,752.5,-161.12,-256.88,-272.08
2111.8739,836.188,-162.992,593.957,-1653.75,-4331.25,393.75,-142.88,-250.8,-253.84
2111.9239,834.48,-165.31,596.519,-1470.0,-4760.0,323.75,-155.04,-243.2,-258.4
2111.9739,835.395,-166.347,593.713,-1601.25,-4550.0,420.0,-156.56,-279.68,-267.52
2112.0239,835.822,-165.371,596.946,-1470.0,-4742.5,840.0,-152.0,-252.32,-284.24
2112.0739,836.31,-161.223,595.787,-1391.25,-4935.0,691.25,-133.76,-250.8,-272.08
2112.1239,837.53,-165.371,595.604,-1566.25,-4646.25,647.5,-152.0,-253.84,-266.0
2112.1739,834.602,-166.042,595.787,-1540.0,-4340.0,420.0,-142.88,-253.84,-267.52
2112.224,834.968,-163.846,595.299,-1627.5,-4882.5,568.75,-145.92,-262.96,-264.48
2112.2739,835.7,-164.395,597.373,-1548.75,-4611.25,796.25,-161.12,-252.32,-273.6
2112.3239,833.992,-165.859,593.713,-1575.0,-4935.0,752.5,-142.88,-258.4,-258.4
2112.3739,835.395,-163.907,595.909,-1601.25,-4812.5,560.0,-167.2,-244.72,-282.72
2112.4239,835.273,-164.151,595.604,-1478.75,-4488.75,428.75,-153.52,-261.44,-272.08
2112.4739,835.09,-167.018,597.068,-1557.5,-4515.0,586.25,-150.48,-255.36,-267.52
2112.5239,837.286,-167.018,594.994,-1610.0,-4637.5,612.5,-142.88,-264.48,-259.92
2112.5739,836.005,-164.456,594.872,-1461.25,-4908.75,542.5,-145.92,-244.72,-270.56
2112.6239,835.761,-163.724,595.665,-1627.5,-4532.5,376.25,-156.56,-256.88,-272.08
2112.6739,836.615,-164.7,596.031,-1452.5,-4585.0,621.25,-150.48,-264.48,-267.52
2112.7239,835.883,-165.432,596.153,-1330.0,-4742.5,568.75,-144.4,-246.24,-279.68
2112.7739,833.626,-165.92,594.079,-1566.25,-4655.0,770.0,-139.84,-259.92,-281.2
2112.8239,836.249,-164.395,597.373,-1636.25,-4637.5,455.0,-162.64,-250.8,-267.52
2112.8739,836.371,-166.713,597.19,-1470.0,-4585.0,411.25,-148.96,-258.4,-255.36
2112.9239,835.517,-163.907,596.458,-1478.75,-4891.25,647.5,-136.8,-247.76,-266.0
2112.9739,836.859,-164.517,597.861,-1566.25,-4698.75,770.0,-153.52,-261.44,-266.0
2113.0239,837.042,-165.554,595.299,-1338.75,-4803.75,673.75,-155.04,-264.48,-269.04
2113.0739,836.493,-163.297,597.373,-1531.25,-4532.5,437.5,-147.44,-273.6,-258.4
2113.1239,835.639,-164.09,595.177,-1715.0,-4462.5,350.0,-141.36,-240.16,-270.56
2113.1739,833.809,-167.018,597.312,-1566.25,-4602.5,735.0,-148.96,-270.56,-269.04
2113.2239,835.883,-165.798,596.031,-1286.25,-4873.75,586.25,-152.0,-269.04,-259.92
2113.2739,836.249,-166.652,596.031,-1627.5,-4637.5,848.75,-161.12,-249.28,-284.24
2113.3239,833.138,-165.737,595.909,-1540.0,-4366.25,446.25,-153.52,-278.16,-264.48
2113.3739,835.517,-164.761,595.97,-1522.5,-4812.5,262.5,-155.04,-246.24,-278.16
2113.4239,836.859,-164.395,596.458,-1592.5,-4436.25,490.0,-142.88,-275.12,-267.52
2113.4739,835.822,-164.944,598.593,-1365.0,-4637.5,787.5,-145.92,-264.48,-273.6
2113.5239,834.907,-164.517,597.922,-1566.25,-5005.0,665.0,-164.16,-246.24,-266.0
2113.574,836.31,-163.663,598.593,-1522.5,-4655.0,280.0,-142.88,-258.4,-275.12
2113.6239,835.09,-166.469,595.421,-1566.25,-4427.5,393.75,-147.44,-244.72,-266.0
2113.6739,834.663,-166.164,594.201,-1487.5,-4523.75,630.0,-147.44,-278.16,-266.0
2113.7239,834.968,-164.639,594.811,-1478.75,-4672.5,630.0,-167.2,-270.56,-272.08
2113.7739,834.541,-166.286,595.238,-1478.75,-4628.75,437.5,-150.48,-252.32,-276.64
2113.8239,835.822,-163.968,595.909,-1531.25,-4541.25,385.0,-155.04,-252.32,-249.28
2113.8739,834.114,-166.164,596.885,-1478.75,-4567.5,551.25,-145.92,-262.96,-272.08
2113.9239,834.846,-166.347,596.885,-1540.0,-4515.0,691.25,-145.92,-244.72,-275.12
2113.9739,834.968,-164.7,598.715,-1373.75,-4585.0,630.0,-148.96,-255.36,-262.96
2114.0239,835.517,-162.016,595.36,-1531.25,-4611.25,577.5,-159.6,-249.28,-275.12
2114.0739,834.541,-165.371,597.312,-1557.5,-4480.0,621.25,-150.48,-259.92,-278.16
2114.1239,834.724,-164.456,594.445,-1452.5,-4663.75,630.0,-145.92,-259.92,-266.0
2114.1739,837.408,-162.382,595.726,-1496.25,-4786.25,691.25,-153.52,-241.68,-261.44
2114.2239,837.591,-166.286,594.75,-1443.75,-4786.25,498.75,-147.44,-259.92,-267.52
2114.2739,837.591,-166.469,593.957,-1566.25,-4716.25,507.5,-159.6,-258.4,-270.56
2114.3239,835.273,-164.639,593.469,-1653.75,-4488.75,315.0,-164.16,-259.92,-279.68
2114.3739,836.432,-165.615,594.384,-1610.0,-4602.5,743.75,-142.88,-249.28,-272.08
2114.4239,835.334,-165.127,594.872,-1408.75,-4716.25,630.0,-145.92,-240.16,-278.16
2114.4739,835.883,-165.371,595.116,-1522.5,-4760.0,411.25,-145.92,-256.88,-269.04
2114.5239,839.36,-166.774,595.055,-1505.0,-4480.0,367.5,-155.04,-261.44,-270.56
2114.5739,835.517,-162.321,596.458,-1723.75,-4567.5,376.25,-153.52,-250.8,-278.16
2114.6239,834.785,-165.371,594.933,-1496.25,-4803.75,752.5,-150.48,-262.96,-261.44
2114.6739,836.554,-164.944,596.702,-1408.75,-4567.5,778.75,-147.44,-252.32,-266.0
2114.7239,835.029,-165.493,594.689,-1688.75,-4865.0,332.5,-161.12,-276.64,-262.96
2114.7739,835.639,-163.236,596.885,-1601.25,-4655.0,341.25,-152.0,-258.4,-275.12
2114.8239,836.798,-165.92,597.373,-1540.0,-4725.0,455.0,-142.88,-258.4,-275.12
2114.8739,836.249,-167.079,595.665,-1452.5,-4908.75,735.0,-158.08,-241.68,-270.56
2114.9241,835.517,-165.127,596.153,-1566.25,-4506.25,673.75,-148.96,-255.36,-269.04
2114.9739,835.517,-162.687,594.384,-1557.5,-4847.5,586.25,-145.92,-256.88,-266.0
2115.0239,838.689,-165.005,597.373,-1540.0,-4488.75,446.25,-165.68,-232.56,-264.48
2115.0739,835.822,-164.639,596.214,-1627.5,-4515.0,603.75,-145.92,-252.32,-273.6
2115.1239,834.846,-164.395,595.36,-1592.5,-4646.25,700.0,-162.64,-246.24,-275.12
2115.1739,836.554,-164.029,595.055,-1321.25,-4742.5,498.75,-147.44,-261.44,-261.44
2115.2239,834.907,-164.7,594.811,-1601.25,-4611.25,665.0,-135.28,-261.44,-253.84
2115.2739,835.456,-164.578,594.384,-1557.5,-4401.25,516.25,-155.04,-266.0,-264.48
2115.3239,836.127,-163.175,595.238,-1513.75,-4690.0,516.25,-156.56,-264.48,-272.08
2115.3739,836.249,-165.859,596.214,-1505.0,-4550.0,700.0,-173.28,-256.88,-273.6
2115.4239,836.432,-165.31,593.713,-1417.5,-4576.25,542.5,-136.8,-261.44,-258.4
2115.4739,834.785,-164.944,595.238,-1417.5,-4786.25,437.5,-138.32,-258.4,-266.0
2115.5239,834.968,-165.005,597.19,-1338.75,-4637.5,586.25,-162.64,-252.32,-269.04
2115.5739,835.883,-166.774,595.787,-1557.5,-4383.75,568.75,-141.36,-258.4,-264.48
2115.6239,838.14,-165.615,596.336,-1470.0,-4637.5,726.25,-141.36,-252.32,-269.04
2115.6739,835.639,-163.663,595.787,-1645.0,-4646.25,402.5,-161.12,-259.92,-256.88
2115.7239,835.151,-165.31,595.665,-1566.25,-4383.75,341.25,-159.6,-244.72,-261.44
2115.7739,835.395,-165.005,597.251,-1583.75,-4532.5,638.75,-144.4,-259.92,-276.64
2115.8239,836.981,-165.676,595.604,-1522.5,-4707.5,805.0,-148.96,-241.68,-269.04
2115.8739,837.347,-165.127,595.787,-1443.75,-4760.0,577.5,-159.6,-258.4,-272.08
2115.9239,837.713,-166.164,594.079,-1688.75,-4410.0,437.5,-148.96,-256.88,-276.64
2115.9739,834.724,-165.005,594.75,-1706.25,-4366.25,341.25,-153.52,-252.32,-269.04
2116.0239,836.676,-166.103,597.251,-1487.5,-4506.25,700.0,-132.24,-249.28,-259.92
2116.0739,835.578,-165.005,596.092,-1531.25,-5022.5,743.75,-152.0,-247.76,-272.08
2116.1239,834.175,-164.334,597.007,-1435.0,-4558.75,691.25,-158.08,-252.32,-278.16
2116.1739,835.334,-162.748,596.702,-1618.75,-4436.25,367.5,-147.44,-246.24,-266.0
2116.2239,837.469,-165.127,595.116,-1557.5,-4620.0,297.5,-150.48,-253.84,-264.48
2116.2739,837.469,-164.029,594.628,-1548.75,-4742.5,420.0,-155.04,-272.08,-267.52
2116.3239,835.334,-164.944,595.787,-1461.25,-4628.75,831.25,-144.4,-261.44,-255.36
2116.374,834.419,-161.833,596.702,-1610.0,-4821.25,665.0,-144.4,-252.32,-272.08
2116.4239,838.567,-166.286,594.811,-1601.25,-4725.0,341.25,-147.44,-240.16,-262.96
2116.4739,835.7,-166.042,597.495,-1566.25,-4620.0,472.5,-159.6,-258.4,-266.0
2116.5239,835.517,-164.761,595.787,-1522.5,-4506.25,560.0,-156.56,-246.24,-264.48
2116.5739,836.92,-164.822,596.092,-1470.0,-4751.25,743.75,-155.04,-235.6,-262.96
2116.6239,833.809,-164.456,595.543,-1540.0,-4698.75,516.25,-139.84,-252.32,-273.6
2116.6739,836.127,-163.968,596.641,-1610.0,-4532.5,437.5,-155.04,-262.96,-244.72
2116.7239,834.968,-165.981,593.713,-1540.0,-4445.0,411.25,-167.2,-275.12,-259.92
2116.7739,834.175,-165.615,598.959,-1522.5,-4576.25,577.5,-150.48,-264.48,-264.48
2116.8239,835.761,-163.724,595.604,-1557.5,-4795.0,700.0,-147.44,-252.32,-259.92
2116.8739,835.578,-163.48,598.41,-1592.5,-4628.75,472.5,-153.52,-246.24,-273.6
2116.9239,836.92,-165.676,597.861,-1610.0,-4497.5,463.75,-144.4,-258.4,-259.92
2116.9739,835.456,-163.175,594.994,-1461.25,-4655.0,577.5,-153.52,-246.24,-281.2
2117.0239,833.748,-165.493,595.36,-1496.25,-4768.75,691.25,-142.88,-256.88,-261.44
2117.0739,835.517,-165.737,597.861,-1417.5,-4663.75,472.5,-150.48,-262.96,-269.04
2117.1239,835.212,-165.188,594.811,-1653.75,-4646.25,420.0,-152.0,-253.84,-270.56
2117.1739,837.347,-167.079,594.872,-1435.0,-4777.5,385.0,-168.72,-255.36,-287.28
2117.2239,834.785,-165.371,597.739,-1496.25,-4716.25,743.75,-145.92,-266.0,-276.64
2117.2739,835.029,-165.554,598.288,-1496.25,-4768.75,691.25,-159.6,-241.68,-261.44
2117.3239,836.371,-164.517,598.288,-1531.25,-4628.75,350.0,-152.0,-264.48,-266.0
2117.3739,836.615,-164.151,596.031,-1505.0,-4637.5,402.5,-153.52,-250.8,-272.08
2117.4239,837.652,-165.859,595.909,-1566.25,-4331.25,385.0,-148.96,-252.32,-273.6
2117.4739,837.896,-165.493,596.092,-1531.25,-4663.75,752.5,-161.12,-244.72,-284.24
2117.5239,835.09,-166.652,595.299,-1382.5,-4760.0,761.25,-148.96,-264.48,-282.72
2117.5739,837.469,-163.968,594.079,-1487.5,-4707.5,288.75,-145.92,-261.44,-273.6
2117.6239,834.358,-165.066,595.482,-1627.5,-4567.5,376.25,-164.16,-252.32,-266.0
2117.6739,836.676,-165.005,594.262,-1426.25,-4558.75,437.5,-127.68,-253.84,-259.92
2117.724,836.188,-164.578,595.909,-1557.5,-4803.75,770.0,-150.48,-262.96,-272.08
2117.7739,836.066,-165.127,597.373,-1487.5,-4532.5,752.5,-139.84,-237.12,-281.2
2117.8239,836.188,-163.236,595.848,-1505.0,-4865.0,603.75,-144.4,-255.36,-275.12
2117.8739,836.92,-165.493,595.909,-1583.75,-4637.5,367.5,-141.36,-247.76,-255.36
2117.9239,836.31,-164.212,594.994,-1426.25,-4523.75,481.25,-155.04,-256.88,-281.2
2117.9739,837.042,-165.066,595.482,-1487.5,-4725.0,813.75,-158.08,-269.04,-266.0
2118.0239,837.042,-164.09,595.787,-1513.75,-4707.5,612.5,-153.52,-267.52,-287.28
2118.0739,836.859,-164.7,593.957,-1575.0,-4751.25,498.75,-161.12,-246.24,-258.4
2118.1239,834.907,-165.249,597.068,-1557.5,-4401.25,472.5,-142.88,-252.32,-272.08
2118.1739,834.358,-162.992,596.58,-1557.5,-4532.5,525.0,-153.52,-238.64,-259.92
2118.2239,837.469,-165.432,596.763,-1540.0,-4567.5,577.5,-144.4,-255.36,-266.0
2118.2739,836.432,-165.127,595.421,-1566.25,-4821.25,647.5,-139.84,-241.68,-267.52
2118.3239,835.7,-165.737,594.933,-1478.75,-4585.0,542.5,-150.48,-249.28,-253.84
2118.3739,834.968,-165.188,595.543,-1583.75,-4628.75,420.0,-145.92,-247.76,-273.6
2118.4239,836.798,-164.761,594.75,-1487.5,-4707.5,656.25,-145.92,-259.92,-264.48
2118.4739,834.236,-165.981,595.421,-1470.0,-4637.5,726.25,-148.96,-250.8,-258.4
2118.5239,837.774,-162.992,596.824,-1653.75,-4698.75,455.0,-153.52,-243.2,-261.44
2118.5739,835.517,-164.151,595.36,-1627.5,-4576.25,358.75,-145.92,-259.92,-275.12
2118.6239,836.005,-162.687,596.397,-1601.25,-4576.25,708.75,-158.08,-258.4,-272.08
2118.6739,836.615,-164.151,596.336,-1426.25,-4795.0,822.5,-152.0,-252.32,-267.52
2118.7239,835.7,-164.456,595.97,-1487.5,-4646.25,691.25,-142.88,-247.76,-262.96
2118.7739,837.164,-165.066,597.678,-1347.5,-4672.5,297.5,-145.92,-261.44,-279.68
2118.8239,835.883,-166.774,595.543,-1575.0,-4576.25,402.5,-174.8,-261.44,-259.92
2118.8739,834.541,-163.724,595.36,-1566.25,-4410.0,673.75,-155.04,-249.28,-272.08
2118.9239,834.541,-166.042,596.824,-1417.5,-5101.25,726.25,-158.08,-258.4,-272.08
2118.9739,835.883,-163.114,592.615,-1522.5,-4541.25,726.25,-152.0,-266.0,-250.8
2119.0239,833.382,-164.883,595.909,-1715.0,-4401.25,455.0,-152.0,-246.24,-275.12
2119.074,835.151,-165.005,597.373,-1461.25,-4760.0,323.75,-155.04,-256.88,-275.12
2119.1239,836.859,-165.127,596.397,-1715.0,-4497.5,586.25,-150.48,-258.4,-256.88
2119.1739,836.554,-165.005,597.983,-1610.0,-4392.5,700.0,-153.52,-256.88,-266.0
2119.2239,834.053,-164.456,597.373,-1583.75,-4768.75,735.0,-161.12,-256.88,-267.52
2119.2739,838.079,-166.713,595.787,-1557.5,-4611.25,306.25,-161.12,-252.32,-244.72
2119.3239,836.859,-163.724,596.885,-1478.75,-4646.25,498.75,-159.6,-259.92,-261.44
2119.3739,836.615,-167.323,596.214,-1522.5,-4497.5,621.25,-145.92,-258.4,-262.96
2119.4239,835.639,-166.347,595.604,-1522.5,-4646.25,726.25,-147.44,-252.32,-266.0
2119.4739,836.31,-165.92,596.397,-1496.25,-4602.5,542.5,-165.68,-258.4,-261.44
2119.5239,835.029,-165.005,596.031,-1750.0,-4445.0,533.75,-153.52,-228.0,-270.56
2119.5739,834.968,-163.968,596.519,-1531.25,-4383.75,472.5,-153.52,-259.92,-278.16
2119.6239,836.31,-167.079,596.824,-1548.75,-4593.75,630.0,-152.0,-243.2,-275.12
2119.6739,837.225,-166.835,596.641,-1373.75,-4681.25,577.5,-135.28,-264.48,-269.04
2119.7239,836.676,-163.846,595.299,-1470.0,-4646.25,533.75,-155.04,-238.64,-259.92
2119.7739,836.981,-163.541,598.105,-1487.5,-4628.75,656.25,-150.48,-247.76,-266.0
2119.8239,835.029,-163.724,596.214,-1653.75,-4445.0,638.75,-147.44,-253.84,-264.48
2119.8739,835.273,-166.591,594.323,-1321.25,-4812.5,700.0,-165.68,-264.48,-276.64
2119.9239,835.212,-165.188,597.251,-1435.0,-4663.75,428.75,-168.72,-261.44,-275.12
2119.9739,837.286,-164.151,595.36,-1715.0,-4681.25,420.0,-148.96,-255.36,-278.16
2120.0239,836.127,-165.31,593.469,-1435.0,-4725.0,376.25,-144.4,-266.0,-267.52
2120.0739,836.432,-164.578,599.02,-1391.25,-4716.25,586.25,-145.92,-267.52,-259.92
2120.1239,833.931,-165.066,596.458,-1478.75,-4646.25,708.75,-150.48,-255.36,-273.6
2120.1739,836.859,-164.395,595.665,-1592.5,-4471.25,376.25,-139.84,-249.28,-281.2
2120.2239,834.846,-163.358,598.166,-1522.5,-4436.25,376.25,-130.72,-249.28,-275.12
2120.2739,836.92,-163.724,595.726,-1478.75,-4471.25,210.0,-162.64,-261.44,-258.4
2120.3239,833.748,-165.798,596.092,-1575.0,-4742.5,735.0,-161.12,-270.56,-282.72
2120.3739,835.212,-164.883,595.543,-1400.0,-4865.0,638.75,-158.08,-258.4,-256.88
2120.424,836.859,-165.432,592.615,-1426.25,-4803.75,420.0,-165.68,-255.36,-270.56
2120.4739,834.907,-165.371,594.323,-1575.0,-4523.75,428.75,-153.52,-247.76,-266.0
2120.5239,834.48,-162.565,594.14,-1461.25,-4515.0,376.25,-159.6,-267.52,-262.96
2120.5739,836.249,-164.273,596.641,-1478.75,-4567.5,918.75,-156.56,-272.08,-272.08
2120.6239,835.212,-164.822,595.116,-1513.75,-4646.25,630.0,-138.32,-249.28,-267.52
2120.6739,835.578,-164.822,594.933,-1408.75,-4882.5,560.0,-152.0,-255.36,-273.6
2120.7239,835.273,-161.833,594.872,-1408.75,-5031.25,420.0,-156.56,-261.44,-279.68
2120.7739,834.846,-163.968,594.75,-1461.25,-4541.25,490.0,-133.76,-255.36,-259.92
2120.8239,835.639,-163.297,594.506,-1408.75,-5013.75,770.0,-148.96,-253.84,-259.92
2120.8739,835.944,-165.615,594.994,-1478.75,-4672.5,595.0,-155.04,-241.68,-262.96
2120.9239,835.578,-164.944,594.323,-1478.75,-4716.25,463.75,-158.08,-255.36,-264.48
2120.9739,836.798,-166.957,596.641,-1540.0,-4602.5,507.5,-141.36,-249.28,-272.08
2121.0239,834.358,-164.212,595.97,-1575.0,-4716.25,665.0,-147.44,-234.08,-270.56
2121.0739,833.504,-163.175,596.397,-1557.5,-4795.0,691.25,-136.8,-253.84,-287.28
2121.1239,836.981,-165.005,594.018,-1505.0,-4795.0,621.25,-144.4,-252.32,-270.56
2121.1739,837.652,-165.554,597.556,-1583.75,-4637.5,402.5,-153.52,-244.72,-262.96
2121.2239,836.31,-164.517,597.556,-1496.25,-4550.0,490.0,-141.36,-249.28,-269.04
2121.2739,837.042,-164.09,599.386,-1566.25,-4515.0,612.5,-144.4,-269.04,-269.04
2121.3239,839.116,-165.066,593.53,-1400.0,-4803.75,752.5,-152.0,-270.56,-276.64
2121.3739,837.774,-167.506,598.837,-1548.75,-4716.25,472.5,-152.0,-249.28,-275.12
2121.4239,838.079,-162.565,598.166,-1513.75,-4191.25,358.75,-148.96,-256.88,-262.96
2121.4739,837.896,-165.188,596.458,-1828.75,-4733.75,822.5,-164.16,-256.88,-256.88
2121.5239,836.737,-166.652,595.787,-1233.75,-4725.0,577.5,-145.92,-258.4,-272.08
2121.5739,833.26,-166.164,598.471,-1715.0,-4480.0,918.75,-141.36,-250.8,-273.6
2121.6239,835.273,-164.944,595.421,-1662.5,-4480.0,472.5,-130.72,-264.48,-267.52
2121.6739,831.979,-164.578,597.007,-1601.25,-4497.5,420.0,-147.44,-264.48,-259.92
2121.7239,837.713,-165.981,595.177,-1417.5,-4576.25,665.0,-147.44,-256.88,-255.36
2121.7741,835.151,-165.859,594.689,-1470.0,-4663.75,743.75,-156.56,-253.84,-279.68
2121.8239,836.005,-162.992,597.495,-1400.0,-4655.0,770.0,-148.96,-258.4,-284.24
2121.8739,838.018,-163.541,595.604,-1496.25,-4751.25,315.0,-155.04,-250.8,-258.4
2121.9239,836.371,-164.944,597.19,-1575.0,-4252.5,481.25,-161.12,-258.4,-267.52
2121.9739,836.92,-163.907,595.665,-1417.5,-4593.75,428.75,-145.92,-240.16,-273.6
2122.0239,835.029,-166.835,595.238,-1461.25,-4707.5,665.0,-142.88,-258.4,-269.04
2122.0739,836.127,-164.395,593.469,-1435.0,-4698.75,700.0,-156.56,-253.84,-262.96
2122.1239,836.737,-163.175,595.604,-1575.0,-4786.25,323.75,-171.76,-269.04,-267.52
2122.1739,837.225,-164.883,594.689,-1636.25,-4383.75,481.25,-152.0,-266.0,-269.04
2122.2239,834.907,-164.761,595.482,-1417.5,-4707.5,472.5,-159.6,-244.72,-272.08
2122.2739,837.347,-164.273,593.53,-1522.5,-4637.5,682.5,-141.36,-258.4,-266.0
2122.3239,834.968,-166.469,596.092,-1522.5,-4742.5,516.25,-153.52,-259.92,-269.04
2122.3739,835.7,-165.92,593.957,-1688.75,-4620.0,411.25,-142.88,-252.32,-261.44
2122.4239,836.127,-164.273,595.482,-1400.0,-4873.75,560.0,-138.32,-249.28,-267.52
2122.4739,835.822,-164.761,596.092,-1461.25,-4786.25,708.75,-153.52,-253.84,-252.32
2122.5239,835.7,-167.384,595.97,-1470.0,-4593.75,595.0,-156.56,-243.2,-264.48
2122.5739,838.445,-165.31,593.713,-1627.5,-4690.0,446.25,-158.08,-243.2,-259.92
2122.6239,834.541,-163.48,595.055,-1496.25,-4620.0,568.75,-152.0,-264.48,-261.44
2122.6739,834.907,-163.907,595.848,-1522.5,-4795.0,533.75,-135.28,-244.72,-267.52
2122.7239,835.029,-164.151,594.567,-1452.5,-4707.5,726.25,-153.52,-269.04,-270.56
2122.7739,838.018,-165.005,596.092,-1627.5,-4768.75,630.0,-179.36,-253.84,-273.6
2122.8239,836.066,-162.992,597.678,-1531.25,-4471.25,262.5,-155.04,-259.92,-259.92
2122.8739,838.689,-164.029,596.702,-1548.75,-4506.25,367.5,-136.8,-270.56,-269.04
2122.9239,836.005,-165.798,596.58,-1417.5,-4707.5,726.25,-153.52,-249.28,-261.44
2122.9739,836.188,-166.164,595.787,-1566.25,-4760.0,796.25,-158.08,-249.28,-269.04
2123.0239,835.09,-165.066,595.482,-1505.0,-4628.75,385.0,-145.92,-266.0,-278.16
2123.0739,834.968,-163.724,595.787,-1645.0,-4663.75,393.75,-147.44,-244.72,-270.56
2123.1239,835.578,-167.079,595.909,-1697.5,-4576.25,393.75,-158.08,-243.2,-270.56
2123.1739,836.31,-164.456,596.702,-1645.0,-4576.25,752.5,-150.48,-252.32,-273.6
2123.224,834.785,-163.724,595.909,-1478.75,-4593.75,665.0,-148.96,-258.4,-266.0
2123.2739,835.212,-164.09,594.75,-1531.25,-4690.0,393.75,-162.64,-261.44,-272.08
2123.3239,837.042,-167.018,596.214,-1531.25,-4348.75,280.0,-156.56,-264.48,-264.48
2123.3739,836.432,-165.31,594.628,-1548.75,-4506.25,437.5,-141.36,-252.32,-262.96
2123.4239,837.225,-165.371,595.116,-1505.0,-4707.5,822.5,-164.16,-249.28,-259.92
2123.4739,836.432,-164.7,597.739,-1671.25,-4663.75,787.5,-148.96,-256.88,-258.4
2123.5239,834.419,-163.48,595.726,-1242.5,-4882.5,525.0,-145.92,-256.88,-275.12
2123.5739,836.859,-163.236,596.336,-1487.5,-4637.5,437.5,-155.04,-243.2,-259.92
2123.6239,833.992,-166.957,597.556,-1680.0,-4427.5,525.0,-141.36,-267.52,-267.52
2123.6739,837.042,-165.249,593.896,-1478.75,-4445.0,691.25,-145.92,-243.2,-267.52
2123.7239,836.493,-163.968,594.018,-1391.25,-4742.5,630.0,-150.48,-262.96,-267.52
2123.7739,836.676,-163.968,598.227,-1566.25,-4611.25,516.25,-145.92,-255.36,-270.56
2123.8239,835.578,-166.835,595.97,-1671.25,-4418.75,498.75,-153.52,-238.64,-273.6
2123.8739,836.859,-163.724,594.872,-1452.5,-4515.0,595.0,-153.52,-258.4,-267.52
2123.9239,836.737,-164.761,596.702,-1531.25,-4576.25,761.25,-164.16,-247.76,-262.96
2123.9739,835.883,-163.968,596.031,-1513.75,-5066.25,516.25,-145.92,-241.68,-259.92
2124.0239,837.652,-163.297,595.177,-1496.25,-4760.0,437.5,-147.44,-278.16,-270.56
2124.0739,836.493,-165.188,596.275,-1443.75,-4742.5,533.75,-153.52,-262.96,-273.6
2124.1239,835.7,-163.48,595.909,-1653.75,-4436.25,656.25,-135.28,-243.2,-259.92
2124.1739,836.31,-166.408,595.543,-1382.5,-4803.75,735.0,-150.48,-250.8,-269.04
2124.2239,834.663,-162.626,596.824,-1435.0,-4593.75,385.0,-142.88,-255.36,-267.52
2124.2739,835.822,-163.724,596.275,-1426.25,-4725.0,385.0,-165.68,-266.0,-264.48
2124.3239,832.223,-165.249,594.262,-1417.5,-4891.25,673.75,-165.68,-258.4,-278.16
2124.3739,839.055,-165.005,597.373,-1513.75,-4681.25,665.0,-156.56,-264.48,-266.0
2124.4239,837.408,-161.345,597.739,-1513.75,-4287.5,717.5,-141.36,-249.28,-279.68
2124.4739,836.371,-164.273,599.752,-1671.25,-4576.25,525.0,-158.08,-261.44,-269.04
2124.5239,834.114,-166.103,596.58,-1443.75,-4427.5,358.75,-158.08,-246.24,-269.04
2124.574,836.188,-163.724,594.689,-1575.0,-4733.75,726.25,-152.0,-256.88,-262.96
2124.6239,835.883,-165.615,593.347,-1461.25,-4856.25,805.0,-152.0,-253.84,-256.88
2124.6739,837.225,-165.676,594.933,-1610.0,-4716.25,848.75,-165.68,-259.92,-264.48
2124.7239,835.822,-166.835,597.312,-1487.5,-4733.75,288.75,-144.4,-253.84,-272.08
2124.7739,838.872,-164.09,595.665,-1592.5,-4646.25,402.5,-159.6,-244.72,-255.36
2124.8239,837.408,-162.87,596.824,-1575.0,-4357.5,866.25,-165.68,-244.72,-262.96
2124.8739,835.7,-164.456,595.055,-1496.25,-4532.5,857.5,-152.0,-255.36,-284.24
2124.9239,837.347,-164.639,597.19,-1408.75,-4733.75,612.5,-147.44,-249.28,-267.52
2124.9739,834.297,-162.931,599.386,-1592.5,-4611.25,367.5,-141.36,-258.4,-262.96
2125.0239,835.029,-166.835,594.079,-1540.0,-4733.75,341.25,-153.52,-262.96,-252.32
2125.0739,835.822,-165.615,598.471,-1522.5,-4375.0,560.0,-167.2,-250.8,-270.56
2125.1239,834.724,-165.371,597.495,-1496.25,-4786.25,778.75,-150.48,-247.76,-262.96
2125.1739,837.042,-165.127,594.933,-1636.25,-4488.75,656.25,-145.92,-259.92,-261.44
2125.2239,834.724,-165.798,596.763,-1618.75,-4366.25,358.75,-155.04,-259.92,-264.48
2125.2739,835.395,-165.127,595.97,-1522.5,-4550.0,481.25,-150.48,-256.88,-267.52
2125.3239,834.541,-165.737,596.153,-1531.25,-4751.25,708.75,-159.6,-244.72,-281.2
2125.3739,834.724,-165.554,596.763,-1531.25,-4891.25,770.0,-142.88,-266.0,-272.08
2125.4239,838.872,-164.883,594.445,-1505.0,-4777.5,437.5,-162.64,-259.92,-266.0
2125.4739,835.883,-163.541,595.604,-1487.5,-4418.75,507.5,-153.52,-250.8,-264.48
2125.5239,836.981,-165.493,598.715,-1531.25,-4663.75,542.5,-133.76,-258.4,-264.48
2125.5739,837.408,-167.018,595.97,-1461.25,-4663.75,770.0,-139.84,-252.32,-282.72
2125.6239,835.395,-164.395,594.872,-1653.75,-4480.0,568.75,-155.04,-267.52,-255.36
2125.6739,836.005,-165.371,596.702,-1496.25,-4917.5,393.75,-152.0,-246.24,-273.6
2125.7239,835.334,-164.029,594.018,-1601.25,-4383.75,367.5,-161.12,-266.0,-282.72
2125.7739,835.578,-164.09,594.933,-1487.5,-4681.25,752.5,-147.44,-240.16,-272.08
2125.8239,836.493,-166.591,594.811,-1540.0,-4462.5,787.5,-158.08,-249.28,-259.92
2125.8739,836.188,-165.005,595.36,-1408.75,-4497.5,323.75,-155.04,-244.72,-264.48
2125.924,836.554,-165.615,595.787,-1723.75,-4488.75,446.25,-144.4,-229.52,-273.6
2125.9739,836.737,-165.249,594.079,-1557.5,-4532.5,420.0,-136.8,-238.64,-255.36
2126.0239,837.469,-165.188,595.299,-1575.0,-4637.5,761.25,-167.2,-276.64,-270.56
2126.0739,835.517,-164.822,594.811,-1330.0,-4821.25,691.25,-152.0,-252.32,-272.08
2126.1239,837.164,-164.334,594.262,-1478.75,-4567.5,341.25,-164.16,-253.84,-270.56
2126.1739,836.432,-164.883,594.994,-1548.75,-4506.25,385.0,-142.88,-264.48,-266.0
2126.2239,837.103,-162.992,595.726,-1487.5,-4471.25,297.5,-155.04,-247.76,-266.0
2126.2739,837.469,-163.663,596.092,-1583.75,-4611.25,822.5,-142.88,-261.44,-270.56
2126.3239,837.53,-164.029,596.824,-1426.25,-4935.0,673.75,-155.04,-247.76,-258.4
2126.3739,838.384,-165.066,595.177,-1531.25,-4716.25,647.5,-145.92,-264.48,-262.96
2126.4239,836.981,-166.957,594.323,-1443.75,-4515.0,420.0,-158.08,-253.84,-259.92
2126.4739,835.7,-164.7,594.506,-1618.75,-4497.5,621.25,-148.96,-250.8,-259.92
2126.5239,837.469,-167.018,595.299,-1496.25,-4760.0,787.5,-152.0,-250.8,-258.4
2126.5739,834.846,-163.236,597.495,-1610.0,-4523.75,656.25,-150.48,-267.52,-273.6
2126.6239,836.493,-167.262,594.628,-1557.5,-4567.5,472.5,-164.16,-264.48,-269.04
2126.6739,837.286,-164.334,596.946,-1548.75,-4620.0,393.75,-141.36,-249.28,-264.48
2126.7239,835.273,-166.103,594.872,-1461.25,-4672.5,568.75,-141.36,-250.8,-256.88
2126.7739,837.469,-163.663,594.933,-1435.0,-4541.25,638.75,-152.0,-269.04,-261.44
2126.8239,835.029,-165.554,596.336,-1662.5,-4663.75,533.75,-159.6,-246.24,-253.84
2126.8739,835.944,-165.066,597.251,-1513.75,-4392.5,332.5,-165.68,-255.36,-269.04
2126.9239,834.358,-163.785,594.262,-1548.75,-4628.75,612.5,-130.72,-255.36,-258.4
2126.9739,837.286,-163.175,595.116,-1513.75,-4646.25,647.5,-153.52,-266.0,-267.52
2127.0239,834.663,-165.188,595.909,-1417.5,-4882.5,717.5,-159.6,-258.4,-270.56
2127.0739,835.7,-164.517,595.421,-1443.75,-4628.75,481.25,-162.64,-244.72,-264.48
2127.1239,835.639,-165.554,596.885,-1601.25,-4602.5,358.75,-133.76,-253.84,-287.28
2127.1739,833.87,-164.639,596.031,-1478.75,-4620.0,656.25,-142.88,-243.2,-262.96
2127.2239,834.358,-164.273,594.628,-1338.75,-4681.25,665.0,-148.96,-264.48,-273.6
2127.2741,835.517,-163.48,596.153,-1636.25,-4453.75,761.25,-148.96,-240.16,-267.52
2127.3239,835.944,-165.615,597.251,-1645.0,-4366.25,385.0,-144.4,-246.24,-272.08
2127.3739,836.493,-162.016,596.519,-1487.5,-4637.5,350.0,-145.92,-235.6,-270.56
2127.4239,836.249,-164.578,594.201,-1417.5,-4803.75,831.25,-148.96,-258.4,-262.96
2127.4739,835.029,-163.602,597.068,-1443.75,-5022.5,805.0,-153.52,-269.04,-264.48
2127.5239,835.517,-163.785,596.641,-1513.75,-4707.5,787.5,-158.08,-250.8,-266.0
2127.5739,834.846,-165.432,598.41,-1566.25,-4558.75,245.0,-155.04,-249.28,-279.68
2127.6239,837.713,-164.395,596.336,-1610.0,-4226.25,393.75,-147.44,-262.96,-264.48
2127.6739,835.09,-165.737,595.238,-1566.25,-4453.75,848.75,-147.44,-266.0,-266.0
2127.7239,833.26,-167.201,593.591,-1373.75,-4690.0,726.25,-142.88,-259.92,-266.0
2127.7739,837.408,-164.212,595.97,-1531.25,-4655.0,726.25,-144.4,-244.72,-278.16
2127.8239,835.395,-165.737,597.251,-1522.5,-4655.0,297.5,-147.44,-255.36,-272.08
2127.8739,836.31,-163.602,596.641,-1548.75,-4550.0,411.25,-156.56,-250.8,-276.64
2127.9239,836.493,-167.872,593.652,-1566.25,-4208.75,481.25,-152.0,-249.28,-272.08
2127.9739,836.493,-164.822,594.384,-1548.75,-4305.0,621.25,-144.4,-267.52,-276.64
2128.0239,838.628,-166.103,595.116,-1557.5,-4646.25,568.75,-147.44,-253.84,-279.68
2128.0739,836.493,-164.944,594.811,-1575.0,-4480.0,402.5,-150.48,-253.84,-282.72
2128.1239,836.554,-164.273,594.14,-1548.75,-4628.75,551.25,-145.92,-261.44,-278.16
2128.1739,838.445,-162.687,596.763,-1461.25,-4707.5,708.75,-139.84,-250.8,-259.92
2128.2239,836.859,-165.92,597.678,-1487.5,-4707.5,568.75,-159.6,-256.88,-261.44
2128.2739,836.127,-164.151,594.75,-1662.5,-4418.75,437.5,-165.68,-255.36,-284.24
2128.3239,838.689,-166.469,594.14,-1732.5,-4506.25,612.5,-159.6,-249.28,-269.04
2128.3739,837.164,-163.236,596.092,-1522.5,-4690.0,577.5,-148.96,-258.4,-262.96
2128.4239,838.018,-164.7,594.689,-1400.0,-4760.0,700.0,-155.04,-273.6,-266.0
2128.4739,837.103,-162.809,594.872,-1513.75,-4672.5,568.75,-142.88,-253.84,-266.0
2128.5239,834.175,-165.31,597.434,-1540.0,-4576.25,437.5,-142.88,-261.44,-256.88
2128.5739,834.541,-164.761,596.031,-1522.5,-4751.25,376.25,-158.08,-270.56,-269.04
2128.6239,836.554,-165.127,596.214,-1478.75,-4751.25,752.5,-162.64,-259.92,-261.44
2128.6739,835.944,-162.687,595.116,-1531.25,-4418.75,848.75,-135.28,-256.88,-273.6
2128.724,835.517,-162.87,594.506,-1758.75,-4383.75,647.5,-161.12,-258.4,-267.52
2128.7739,835.578,-166.225,594.506,-1312.5,-4777.5,210.0,-148.96,-261.44,-267.52
2128.8239,837.957,-165.31,597.068,-1618.75,-4480.0,315.0,-150.48,-255.36,-269.04
2128.8739,837.713,-165.615,594.506,-1461.25,-4462.5,665.0,-141.36,-255.36,-259.92
2128.9239,836.066,-163.968,595.543,-1575.0,-4628.75,787.5,-155.04,-266.0,-273.6
2128.9739,835.761,-164.639,593.103,-1505.0,-4970.0,376.25,-148.96,-258.4,-266.0
2129.0239,835.639,-164.334,596.092,-1557.5,-4348.75,306.25,-153.52,-252.32,-258.4
2129.0739,836.798,-166.164,595.421,-1513.75,-4672.5,350.0,-136.8,-247.76,-262.96
2129.1239,837.225,-163.297,594.201,-1470.0,-4803.75,787.5,-152.0,-266.0,-264.48
2129.1739,835.7,-163.846,595.97,-1417.5,-4751.25,796.25,-170.24,-258.4,-266.0
2129.2239,835.334,-165.432,597.739,-1618.75,-4873.75,595.0,-161.12,-229.52,-279.68
2129.2739,834.785,-166.225,593.896,-1496.25,-4751.25,341.25,-141.36,-259.92,-267.52
2129.3239,835.273,-165.249,595.421,-1435.0,-4602.5,437.5,-153.52,-259.92,-266.0
2129.3739,833.931,-165.737,596.031,-1496.25,-4821.25,700.0,-153.52,-276.64,-269.04
2129.4239,837.53,-166.835,594.384,-1522.5,-4786.25,848.75,-155.04,-246.24,-273.6
2129.4739,835.761,-164.944,597.678,-1548.75,-4532.5,463.75,-150.48,-244.72,-269.04
2129.5239,836.554,-164.883,595.97,-1653.75,-4620.0,472.5,-148.96,-246.24,-270.56
2129.5739,837.225,-166.835,594.567,-1470.0,-4558.75,490.0,-158.08,-267.52,-273.6
2129.6239,835.883,-165.005,597.8,-1373.75,-4760.0,647.5,-153.52,-267.52,-270.56
2129.6739,834.236,-165.432,597.556,-1610.0,-4453.75,533.75,-168.72,-261.44,-272.08
2129.7239,833.87,-166.408,595.238,-1557.5,-4812.5,446.25,-145.92,-266.0,-266.0
2129.7739,835.273,-165.981,595.543,-1496.25,-4506.25,560.0,-155.04,-250.8,-258.4
2129.8239,838.689,-165.188,596.397,-1811.25,-4173.75,691.25,-165.68,-261.44,-267.52
2129.8739,836.737,-165.981,596.397,-1408.75,-4786.25,735.0,-158.08,-247.76,-270.56
2129.9239,836.432,-167.079,591.761,-1295.0,-4611.25,463.75,-141.36,-231.04,-250.8
2129.9739,836.188,-165.676,597.678,-1688.75,-4436.25,411.25,-156.56,-272.08,-269.04
2130.0239,835.822,-167.079,596.336,-1636.25,-4532.5,770.0,-148.96,-266.0,-261.44
2130.074,835.761,-163.602,597.678,-1426.25,-4733.75,708.75,-145.92,-253.84,-258.4
2130.1239,836.066,-165.371,594.323,-1452.5,-4663.75,726.25,-148.96,-256.88,-261.44
2130.1739,834.114,-164.822,597.373,-1671.25,-4523.75,350.0,-136.8,-256.88,-261.44
2130.2239,835.517,-164.944,596.153,-1513.75,-4620.0,236.25,-158.08,-264.48,-269.04
2130.2739,837.469,-165.554,594.994,-1382.5,-4812.5,630.0,-139.84,-253.84,-264.48
2130.3239,837.286,-164.761,597.251,-1478.75,-4453.75,831.25,-150.48,-266.0,-267.52
2130.3739,835.639,-164.273,596.641,-1548.75,-4690.0,840.0,-147.44,-259.92,-270.56
2130.4239,834.297,-165.249,597.129,-1636.25,-4847.5,420.0,-158.08,-246.24,-273.6
2130.4739,837.591,-162.931,595.482,-1706.25,-4690.0,288.75,-148.96,-250.8,-273.6
2130.5239,835.883,-164.822,594.323,-1461.25,-4576.25,743.75,-139.84,-256.88,-279.68
2130.5739,836.676,-164.7,595.36,-1557.5,-4733.75,735.0,-148.96,-252.32,-261.44
2130.6239,838.079,-163.785,594.567,-1461.25,-4655.0,568.75,-159.6,-252.32,-270.56
2130.6739,836.737,-162.687,598.837,-1601.25,-4698.75,367.5,-153.52,-258.4,-264.48
2130.7239,834.541,-164.456,594.018,-1636.25,-4462.5,428.75,-148.96,-259.92,-269.04
2130.7739,837.225,-165.31,597.007,-1478.75,-4768.75,507.5,-142.88,-258.4,-261.44
2130.8239,836.31,-166.774,594.445,-1540.0,-4786.25,743.75,-141.36,-256.88,-262.96
2130.8739,834.968,-166.164,596.641,-1426.25,-4742.5,568.75,-153.52,-240.16,-273.6
2130.9239,834.114,-166.103,595.36,-1601.25,-4488.75,402.5,-139.84,-252.32,-270.56
2130.9739,835.944,-165.493,596.702,-1461.25,-4733.75,481.25,-153.52,-273.6,-267.52
2131.0239,836.31,-164.334,594.506,-1557.5,-4445.0,586.25,-147.44,-259.92,-272.08
2131.0739,836.371,-164.395,596.031,-1513.75,-4585.0,630.0,-162.64,-262.96,-273.6
2131.1239,835.822,-164.456,596.885,-1443.75,-4523.75,385.0,-139.84,-237.12,-264.48
2131.1739,837.286,-164.944,595.848,-1610.0,-4681.25,472.5,-158.08,-258.4,-259.92
2131.2239,836.798,-164.151,596.458,-1478.75,-4690.0,551.25,-161.12,-258.4,-267.52
2131.2739,835.822,-165.31,595.604,-1382.5,-4716.25,761.25,-142.88,-275.12,-275.12
2131.3239,834.419,-165.127,593.835,-1435.0,-4725.0,498.75,-138.32,-258.4,-267.52
2131.3739,836.554,-166.835,594.994,-1645.0,-4716.25,437.5,-150.48,-253.84,-281.2
2131.424,838.262,-164.395,595.848,-1610.0,-4637.5,446.25,-162.64,-267.52,-259.92
2131.4739,836.554,-164.944,597.007,-1522.5,-4602.5,638.75,-156.56,-255.36,-259.92
2131.5239,836.92,-164.517,593.652,-1575.0,-4611.25,778.75,-138.32,-261.44,-275.12
2131.5739,837.774,-165.066,594.811,-1601.25,-4270.0,481.25,-150.48,-256.88,-270.56
2131.6239,835.883,-165.127,594.445,-1583.75,-4725.0,297.5,-150.48,-243.2,-261.44
2131.6739,834.236,-167.445,596.092,-1645.0,-4453.75,332.5,-152.0,-255.36,-272.08
2131.7239,839.36,-166.347,598.898,-1601.25,-4698.75,796.25,-152.0,-253.84,-258.4
2131.7739,836.615,-164.883,594.201,-1575.0,-4445.0,813.75,-144.4,-258.4,-275.12
2131.8239,834.48,-163.114,594.384,-1540.0,-4453.75,393.75,-147.44,-269.04,-278.16
2131.8739,835.517,-167.14,596.519,-1540.0,-4506.25,358.75,-171.76,-256.88,-270.56
2131.9239,837.408,-165.066,594.567,-1610.0,-4751.25,455.0,-159.6,-252.32,-270.56
2131.9739,836.859,-163.297,597.495,-1470.0,-4611.25,840.0,-147.44,-255.36,-258.4
2132.0239,837.591,-162.87,595.177,-1452.5,-4777.5,700.0,-167.2,-262.96,-281.2
2132.0739,837.469,-164.395,596.336,-1548.75,-4523.75,630.0,-136.8,-250.8,-270.56
2132.1239,835.639,-164.273,594.872,-1723.75,-4628.75,402.5,-138.32,-258.4,-273.6
2132.1739,835.578,-165.127,596.214,-1548.75,-4462.5,411.25,-150.48,-259.92,-275.12
2132.2239,837.042,-164.029,594.079,-1461.25,-4646.25,822.5,-158.08,-264.48,-279.68
2132.2739,836.798,-164.212,596.153,-1470.0,-4558.75,647.5,-158.08,-261.44,-261.44
2132.3239,832.223,-165.066,594.994,-1487.5,-4550.0,498.75,-170.24,-244.72,-258.4
2132.3739,837.225,-166.957,596.336,-1706.25,-4068.75,428.75,-156.56,-247.76,-259.92
2132.4239,832.955,-165.554,594.445,-1522.5,-4935.0,603.75,-145.92,-252.32,-275.12
2132.4739,838.201,-165.188,596.824,-1671.25,-4681.25,656.25,-147.44,-258.4,-267.52
2132.5239,833.26,-165.127,596.763,-1487.5,-4681.25,726.25,-142.88,-252.32,-278.16
2132.5739,834.602,-165.432,594.75,-1540.0,-4628.75,411.25,-164.16,-244.72,-270.56
2132.6239,836.127,-164.822,596.336,-1461.25,-4707.5,472.5,-159.6,-256.88,-264.48
2132.6739,838.628,-164.761,596.763,-1478.75,-4900.0,770.0,-164.16,-267.52,-278.16
2132.7239,835.029,-165.981,595.177,-1583.75,-4261.25,761.25,-161.12,-253.84,-255.36
2132.7741,836.371,-165.371,597.19,-1557.5,-4646.25,437.5,-148.96,-259.92,-255.36
2132.8239,836.188,-163.907,596.702,-1496.25,-4733.75,411.25,-158.08,-258.4,-275.12
2132.8739,835.639,-162.687,596.336,-1496.25,-4742.5,612.5,-150.48,-246.24,-270.56
2132.9239,834.907,-165.981,597.495,-1382.5,-4506.25,743.75,-132.24,-252.32,-270.56
2132.9739,836.188,-163.175,596.153,-1356.25,-4777.5,717.5,-158.08,-255.36,-272.08
2133.0239,835.883,-164.639,596.153,-1356.25,-5118.75,306.25,-156.56,-252.32,-273.6
2133.0739,837.225,-162.687,598.776,-1680.0,-4418.75,341.25,-148.96,-243.2,-255.36
2133.1239,835.944,-165.859,596.824,-1461.25,-4436.25,647.5,-156.56,-249.28,-270.56
2133.1739,837.286,-164.883,596.702,-1452.5,-4698.75,743.75,-147.44,-272.08,-262.96
2133.2239,836.127,-163.724,595.604,-1443.75,-4891.25,761.25,-150.48,-266.0,-285.76
