TimeStamp,ax,ay,az,gx,gy,gz,mx,my,mz
335796.2157,337.33,-122.0,957.029,-4401.25,-7428.75,796.25,-101.84,6.08,-252.32
335796.2657,331.779,-130.723,967.582,-4375.0,-6746.25,-2765.0,-103.36,10.64,-261.44
335796.3157,336.842,-116.815,962.641,-4007.5,-5626.25,-3885.0,-100.32,-6.08,-272.08
335796.3657,347.273,-133.041,960.384,-3010.0,-5678.75,-3823.75,-97.28,4.56,-252.32
335796.4157,353.129,-103.944,949.709,-6098.75,-3841.25,-3447.5,-97.28,3.04,-249.28
335796.4657,347.761,-141.154,959.591,-7682.5,-2283.75,-4095.0,-110.96,7.6,-266.0
335796.5157,324.703,-140.849,969.534,-7070.0,-3237.5,-4550.0,-100.32,4.56,-259.92
335796.5657,316.59,-149.389,969.229,-7192.5,-4515.0,-5460.0,-97.28,18.24,-267.52
335796.6157,332.145,-159.027,972.523,-7026.25,-3290.0,-7481.25,-107.92,6.08,-253.84
335796.6658,322.507,-169.214,973.255,-5101.25,-4961.25,-7271.25,-106.4,9.12,-255.36
335796.7157,327.692,-167.506,961.177,-1181.25,-7770.0,-3080.0,-101.84,10.64,-262.96
335796.7657,345.626,-128.771,951.478,3648.75,-4812.5,-840.0,-104.88,-12.16,-256.88
335796.8157,357.094,-124.562,956.663,1723.75,-6632.5,-140.0,-104.88,12.16,-273.6
335796.8657,336.476,-123.586,969.168,1006.25,-6457.5,-481.25,-124.64,-12.16,-259.92
335796.9157,343.003,-104.127,966.118,1627.5,-7227.5,-2537.5,-106.4,-3.04,-276.64
335796.9657,356.606,-110.715,951.051,-2108.75,-5442.5,-2327.5,-103.36,-10.64,-273.6
335797.0157,360.693,-121.024,950.99,-822.5,-3018.75,-2310.0,-98.8,0.0,-266.0
335797.0657,357.582,-118.157,956.236,1085.0,-2975.0,-630.0,-107.92,-7.6,-255.36
335797.1157,345.87,-100.467,958.676,3465.0,525.0,-673.75,-115.52,-6.08,-266.0
335797.1657,313.601,-92.72,979.904,-297.5,-3080.0,-1356.25,-89.68,-7.6,-262.96
335797.2157,329.217,-90.585,961.787,-4191.25,-4873.75,-1776.25,-118.56,-13.68,-262.96
335797.2657,339.038,-116.449,966.057,-3272.5,-4672.5,-455.0,-104.88,0.0,-276.64
335797.3157,351.97,-117.181,962.58,-1627.5,-6650.0,953.75,-107.92,-7.6,-256.88
335797.3657,359.961,-112.24,954.528,-1750.0,-2511.25,-385.0,-101.84,-15.2,-275.12
335797.4157,323.422,-112.301,973.316,-2940.0,-6457.5,-2546.25,-112.48,-15.2,-261.44
335797.4657,336.903,-104.249,962.519,-1032.5,-3456.25,-2345.0,-104.88,-6.08,-276.64
335797.5157,308.965,-100.04,971.791,-2467.5,-7367.5,-1443.75,-86.64,-15.2,-255.36
335797.5657,345.016,-105.652,959.652,-2143.75,-8312.5,1802.5,-98.8,7.6,-261.44
335797.6159,358.131,-105.957,953.796,-3640.0,-6405.0,2012.5,-121.6,-10.64,-267.52
335797.6657,363.621,-132.004,954.467,-3351.25,-6020.0,2730.0,-104.88,-16.72,-250.8
335797.7158,351.177,-111.508,956.297,-1006.25,-4821.25,1933.75,-112.48,-18.24,-275.12
335797.7657,355.752,-113.46,959.896,-1776.25,-1767.5,621.25,-107.92,-9.12,-264.48
335797.8158,331.535,-123.342,968.741,-3368.75,-2940.0,1286.25,-107.92,-7.6,-272.08
335797.8657,339.892,-133.163,965.508,-682.5,-5993.75,1750.0,-109.44,3.04,-258.4
335797.9157,342.698,-119.194,959.408,-1023.75,-5206.25,2108.75,-98.8,10.64,-264.48
335797.9657,348.249,-123.098,961.055,-1575.0,-6046.25,708.75,-92.72,6.08,-252.32
335798.0157,359.534,-119.865,955.931,-2213.75,-2957.5,-560.0,-107.92,-9.12,-264.48
335798.0657,326.899,-119.865,962.885,-2257.5,-3430.0,-201.25,-92.72,-12.16,-270.56
335798.1157,345.687,-124.013,967.582,-910.0,-3771.25,253.75,-126.16,6.08,-255.36
335798.1657,340.014,-118.279,965.508,-1575.0,-3806.25,507.5,-106.4,-10.64,-272.08
335798.2157,335.073,-118.767,959.957,-1408.75,-3745.0,1076.25,-107.92,-3.04,-270.56
335798.2658,338.794,-125.843,965.63,-1732.5,-4165.0,1076.25,-104.88,-7.6,-258.4
335798.3157,327.875,-128.527,968.436,-350.0,-4060.0,770.0,-100.32,1.52,-273.6
335798.3657,339.465,-104.737,961.97,-1575.0,-4795.0,-52.5,-110.96,-18.24,-258.4
335798.4157,337.147,-111.569,961.055,-3456.25,-4235.0,402.5,-92.72,-9.12,-264.48
335798.4657,340.868,-131.394,962.458,-577.5,-1741.25,1653.75,-104.88,3.04,-272.08
335798.5157,326.899,-103.212,966.362,-2826.25,-3815.0,673.75,-91.2,3.04,-267.52
335798.5657,330.132,-126.941,965.935,-3351.25,-3158.75,455.0,-100.32,0.0,-250.8
335798.6157,312.198,-130.479,970.327,-726.25,-4812.5,2038.75,-98.8,-9.12,-262.96
335798.6657,327.997,-124.074,972.889,-568.75,-4751.25,2047.5,-109.44,-4.56,-259.92
335798.7157,325.74,-125.721,969.107,-2257.5,-4952.5,157.5,-92.72,7.6,-269.04
335798.7657,335.683,-116.876,964.898,-1295.0,-3246.25,-612.5,-91.2,0.0,-269.04
335798.8157,315.309,-121.573,968.924,-1741.25,-3176.25,-288.75,-100.32,0.0,-252.32
335798.8657,317.688,-123.525,971.547,-1496.25,-5573.75,-35.0,-100.32,-6.08,-279.68
335798.9157,320.128,-119.194,966.545,-1496.25,-6370.0,-105.0,-104.88,-16.72,-266.0
335798.9657,329.339,-121.695,961.238,-2073.75,-7306.25,822.5,-86.64,3.04,-261.44
335799.0157,314.211,-130.418,979.599,-210.0,-8321.25,997.5,-100.32,-4.56,-262.96
335799.0657,346.358,-112.362,963.068,-332.5,-7140.0,1251.25,-98.8,10.64,-267.52
335799.1157,319.091,-116.754,965.935,-2563.75,-4856.25,1023.75,-109.44,7.6,-278.16
335799.1657,335.317,-116.022,963.007,-3045.0,-6256.25,446.25,-109.44,-15.2,-262.96
335799.2157,341.478,-122.061,962.702,-4690.0,-6510.0,840.0,-101.84,-13.68,-273.6
335799.2657,337.757,-125.477,959.286,-183.75,-2318.75,-236.25,-110.96,1.52,-262.96
335799.3157,326.35,-115.351,957.578,-2213.75,-4322.5,420.0,-98.8,4.56,-261.44
335799.3657,325.557,-132.187,970.327,-1767.5,-4917.5,1662.5,-97.28,-9.12,-278.16
335799.4158,329.888,-136.274,966.057,-1496.25,-5495.0,3001.25,-95.76,-7.6,-269.04
335799.4657,339.099,-126.514,958.676,-1085.0,-4882.5,1960.0,-107.92,1.52,-264.48
335799.5157,335.622,-132.919,965.996,-2231.25,-3115.0,682.5,-106.4,-12.16,-259.92
335799.5657,316.163,-131.455,970.327,-1907.5,-4375.0,26.25,-98.8,6.08,-270.56
335799.6157,345.382,-133.102,957.883,-1513.75,-6431.25,-166.25,-110.96,-12.16,-253.84
335799.6657,335.439,-128.283,966.728,-218.75,-3946.25,-122.5,-103.36,-6.08,-252.32
335799.7157,327.753,-117.364,963.434,-437.5,-3850.0,-673.75,-101.84,4.56,-259.92
335799.7657,331.657,-111.752,954.467,-2756.25,-4672.5,-813.75,-109.44,9.12,-281.2
335799.8157,335.622,-127.978,968.619,-2563.75,-2590.0,-297.5,-95.76,1.52,-273.6
335799.8657,311.344,-131.394,969.046,-1907.5,-3500.0,-376.25,-115.52,3.04,-261.44
335799.9157,322.568,-126.819,967.643,-2511.25,-5433.75,-2572.5,-107.92,-12.16,-270.56
335799.9657,332.084,-119.499,962.946,-2231.25,-4576.25,-3526.25,-112.48,-10.64,-262.96
335800.0157,332.084,-143.411,971.974,-1461.25,-4410.0,-472.5,-109.44,-3.04,-273.6
335800.0657,321.531,-109.495,962.397,437.5,-4042.5,813.75,-118.56,-3.04,-258.4
335800.1157,327.082,-110.593,969.473,-1478.75,-3797.5,542.5,-107.92,4.56,-270.56
335800.1659,316.59,-123.342,972.157,-2520.0,-3885.0,280.0,-117.04,-4.56,-276.64
335800.2157,310.551,-125.721,975.512,-1041.25,-4506.25,385.0,-97.28,-7.6,-258.4
335800.2658,322.873,-129.442,973.316,-2170.0,-6256.25,1697.5,-97.28,-4.56,-262.96
335800.3157,331.23,-129.93,963.434,-962.5,-6055.0,2345.0,-121.6,-7.6,-284.24
335800.3658,323.178,-131.211,970.388,-1058.75,-6212.5,3307.5,-95.76,-3.04,-279.68
335800.4157,332.45,-122.305,961.36,-385.0,-5941.25,2178.75,-92.72,-7.6,-264.48
335800.4657,326.594,-120.597,966.789,-376.25,-5433.75,113.75,-106.4,-6.08,-269.04
335800.5157,326.045,-109.007,964.898,-1531.25,-4891.25,-332.5,-91.2,6.08,-273.6
335800.5658,319.823,-117.73,971.303,-1925.0,-4532.5,78.75,-112.48,-12.16,-255.36
335800.6157,314.638,-118.645,970.51,-1811.25,-4821.25,455.0,-92.72,-9.12,-267.52
335800.6657,324.825,-118.767,968.619,-953.75,-6098.75,1277.5,-103.36,7.6,-262.96
335800.7157,345.26,-126.026,958.859,-1233.75,-6483.75,2196.25,-107.92,-3.04,-264.48
335800.7657,346.541,-143.411,962.519,726.25,-6203.75,5075.0,-94.24,6.08,-262.96
335800.8157,340.746,-121.329,960.445,2651.25,-6746.25,5923.75,-98.8,-12.16,-264.48
335800.8657,338.123,-111.325,957.029,-1163.75,-7682.5,4891.25,-91.2,-6.08,-255.36
335800.9157,337.818,-148.779,959.957,-2152.5,-4567.5,3815.0,-118.56,-6.08,-261.44
335800.9657,333.243,-131.76,967.704,-910.0,-2021.25,-288.75,-85.12,1.52,-278.16
335801.0157,294.508,-131.821,976.244,-3543.75,-1968.75,-568.75,-107.92,3.04,-269.04
335801.0657,309.026,-128.222,966.24,1190.0,-7717.5,1006.25,-106.4,-3.04,-261.44
335801.1157,331.169,-133.346,964.715,1513.75,-6842.5,2782.5,-101.84,3.04,-256.88
335801.1657,349.408,-95.465,961.665,3710.0,-8312.5,-148.75,-117.04,-16.72,-269.04
335801.2157,347.029,-116.388,971.12,498.75,-5932.5,-1207.5,-94.24,-6.08,-255.36
335801.2657,327.143,-119.621,977.525,4847.5,-11768.75,1566.25,-106.4,-3.04,-267.52
335801.3157,361.303,-74.542,970.571,2170.0,-8321.25,980.0,-106.4,0.0,-258.4
335801.3657,336.11,-68.747,951.051,-8592.5,-13632.5,-6816.25,-107.92,-7.6,-258.4
335801.4157,365.512,-109.678,943.304,-9563.75,-10981.25,-7848.75,-115.52,-12.16,-250.8
335801.4657,376.98,-130.601,942.877,-7463.75,-3701.25,-4856.25,-101.84,-3.04,-243.2
335801.5157,352.092,-148.779,939.034,-5040.0,-5775.0,472.5,-114.0,-3.04,-264.48
335801.5657,375.943,-166.042,969.351,2292.5,-2581.25,5573.75,-114.0,4.56,-264.48
335801.6157,356.423,-96.868,953.308,1163.75,1373.75,-2651.25,-100.32,7.6,-264.48
335801.6657,333.914,-80.703,974.353,-6133.75,140.0,-10053.75,-97.28,0.0,-253.84
335801.7157,339.099,-98.759,953.186,-6886.25,-3928.75,-5862.5,-95.76,-12.16,-264.48
335801.7657,362.584,-126.087,965.63,-2598.75,-4121.25,3745.0,-107.92,-10.64,-256.88
335801.8157,337.757,-117.73,957.883,1058.75,-4602.5,8968.75,-117.04,-4.56,-246.24
335801.8657,358.802,-124.135,948.733,201.25,-3316.25,8671.25,-100.32,-6.08,-252.32
335801.9157,340.868,-139.751,955.138,568.75,-2170.0,7253.75,-88.16,-6.08,-262.96
335801.9657,345.443,-131.028,964.776,2765.0,-3858.75,4121.25,-106.4,16.72,-270.56
335802.0157,338.977,-115.9,962.885,1172.5,-1601.25,1758.75,-101.84,-6.08,-256.88
335802.0657,323.178,-109.129,964.654,393.75,-2030.0,-2476.25,-101.84,-3.04,-267.52
335802.1157,312.381,-103.883,969.778,70.0,-70.0,-525.0,-101.84,-15.2,-261.44
335802.1657,302.682,-116.083,984.479,1820.0,-3438.75,2406.25,-101.84,6.08,-262.96
335802.2157,322.507,-84.729,962.397,2835.0,-5442.5,2065.0,-110.96,-7.6,-264.48
335802.2657,342.515,-80.215,955.382,-2441.25,-4445.0,-752.5,-97.28,-6.08,-275.12
335802.3157,343.369,-97.112,966.24,-3815.0,-3395.0,-1093.75,-109.44,-10.64,-270.56
335802.3657,314.272,-85.705,976.366,-4497.5,-3080.0,-813.75,-98.8,-6.08,-256.88
335802.4157,306.83,-101.626,978.44,-5958.75,-4663.75,1951.25,-86.64,-10.64,-255.36
335802.4657,316.102,-109.556,966.362,-2318.75,-7673.75,4987.5,-109.44,-10.64,-266.0
335802.5157,325.862,-111.813,976.366,-2677.5,-6317.5,4077.5,-103.36,-7.6,-256.88
335802.5657,321.287,-122.976,968.131,-4086.25,-7306.25,3745.0,-100.32,10.64,-276.64
335802.6157,333.548,-135.115,962.824,-603.75,-7481.25,2318.75,-104.88,7.6,-258.4
335802.6657,327.265,-129.869,967.399,-1058.75,-7043.75,953.75,-104.88,-12.16,-275.12
335802.7157,343.064,-115.412,960.14,-297.5,-7052.5,-1688.75,-94.24,-18.24,-258.4
335802.7657,348.676,-105.713,957.883,-393.75,-3473.75,-2852.5,-98.8,4.56,-256.88
335802.8159,326.533,-107.726,968.985,-1688.75,-2861.25,-2598.75,-98.8,-13.68,-278.16
335802.8657,322.263,-103.7,972.584,-1872.5,-5591.25,-1041.25,-88.16,-4.56,-253.84
335802.9158,331.84,-118.34,968.375,-1373.75,-6720.0,192.5,-91.2,0.0,-250.8
335802.9657,343.857,-100.833,956.846,-1076.25,-5871.25,-192.5,-112.48,0.0,-258.4
335803.0157,353.739,-126.514,959.347,-2948.75,-5547.5,822.5,-100.32,-3.04,-278.16
335803.0657,357.826,-131.333,962.519,-1155.0,-4978.75,1085.0,-114.0,12.16,-259.92
335803.1157,335.805,-106.994,960.872,-420.0,-4130.0,1006.25,-112.48,7.6,-267.52
335803.1657,339.831,-105.896,964.41,-1951.25,-4165.0,122.5,-118.56,-3.04,-256.88
335803.2157,326.777,-115.595,965.508,-2266.25,-5153.75,1452.5,-106.4,-9.12,-259.92
335803.2657,333.853,-114.741,965.386,-910.0,-4655.0,3036.25,-101.84,-4.56,-269.04
335803.3157,332.572,-116.449,961.97,-2415.0,-5617.5,2572.5,-109.44,-6.08,-267.52
335803.3657,343.003,-122.793,960.384,-1776.25,-3386.25,1382.5,-103.36,-3.04,-256.88
335803.4157,328.058,-120.963,964.776,-1890.0,-3928.75,-708.75,-83.6,0.0,-258.4
335803.4657,332.938,-119.194,967.338,-1680.0,-4366.25,-2161.25,-109.44,4.56,-270.56
335803.5157,337.086,-115.595,967.155,-1146.25,-3893.75,-2572.5,-103.36,7.6,-279.68
335803.5657,327.997,-99.491,966.24,-1111.25,-4480.0,-1872.5,-110.96,-12.16,-247.76
335803.6157,333.67,-102.419,962.397,-2406.25,-4567.5,-1627.5,-100.32,-15.2,-255.36
335803.6657,328.729,-108.336,969.473,-1706.25,-3211.25,-437.5,-106.4,1.52,-266.0
335803.7157,313.784,-105.957,970.693,-1347.5,-4655.0,621.25,-97.28,-10.64,-276.64
335803.7658,332.206,-105.469,968.314,-2625.0,-5145.0,490.0,-101.84,-18.24,-276.64
335803.8157,344.223,-132.614,966.85,-3237.5,-5460.0,1356.25,-110.96,-13.68,-269.04
335803.8657,334.402,-135.908,964.715,2415.0,-3132.5,1907.5,-104.88,-4.56,-256.88
335803.9157,344.894,-96.38,973.194,5538.75,-5845.0,4261.25,-82.08,0.0,-266.0
335803.9657,351.299,-97.722,967.643,533.75,-7533.75,-988.75,-104.88,-10.64,-279.68
335804.0157,353.678,-103.273,934.276,-603.75,-6965.0,-2607.5,-92.72,-16.72,-267.52
335804.0657,350.018,-92.293,944.463,463.75,-3237.5,5565.0,-106.4,-9.12,-255.36
335804.1157,339.221,-96.624,965.569,-131.25,428.75,8041.25,-121.6,-9.12,-267.52
335804.1657,297.619,-74.969,973.316,-4620.0,3850.0,-3018.75,-95.76,7.6,-273.6
335804.2157,278.953,-97.783,968.497,-12600.0,-3010.0,-6807.5,-98.8,-12.16,-261.44
335804.2657,292.8,-133.102,979.843,-4340.0,-2861.25,-5757.5,-101.84,0.0,-275.12
335804.3157,334.158,-131.943,996.679,-6212.5,-3928.75,-5083.75,-103.36,-18.24,-279.68
335804.3657,290.482,-130.174,985.638,-1242.5,-5433.75,-9336.25,-91.2,-3.04,-273.6
335804.4157,345.138,-93.33,952.027,-2458.75,-6580.0,-6763.75,-91.2,-6.08,-267.52
335804.4657,323.666,-111.081,981.551,-3298.75,-7743.75,-3587.5,-98.8,-21.28,-275.12
335804.5157,323.3,-97.173,963.8,52.5,-6457.5,-3447.5,-101.84,-7.6,-247.76
335804.5657,344.589,-137.433,940.742,-6317.5,-6107.5,5188.75,-107.92,-13.68,-262.96
335804.6157,328.363,-154.391,976.427,-1557.5,-7166.25,2773.75,-101.84,-6.08,-259.92
335804.6657,323.544,-101.687,958.493,-4803.75,1260.0,-1111.25,-114.0,-16.72,-266.0
335804.7157,321.043,-145.851,990.823,-1793.75,-7035.0,2590.0,-98.8,10.64,-252.32
335804.7657,315.858,-144.631,970.998,3263.75,-3911.25,4961.25,-104.88,-7.6,-267.52
335804.8157,326.838,-104.127,956.114,6676.25,-5661.25,5022.5,-106.4,4.56,-261.44
335804.8657,368.135,-54.839,951.783,3622.5,-1356.25,901.25,-100.32,13.68,-267.52
335804.9158,313.235,-34.099,946.781,-17010.0,1583.75,-700.0,-101.84,-3.04,-272.08
335804.9657,303.658,-218.197,996.74,-6518.75,-4917.5,10115.0,-76.0,6.08,-261.44
335805.0157,314.882,-201.483,1002.901,5276.25,-4812.5,9983.75,-110.96,-4.56,-276.64
335805.0657,328.729,-107.36,986.126,5118.75,-7647.5,-288.75,-103.36,3.04,-267.52
335805.1157,288.652,5.856,904.752,-6055.0,-12197.5,-10876.25,-91.2,-10.64,-261.44
335805.1657,381.799,-156.221,988.749,-11208.75,-4523.75,2940.0,-117.04,-10.64,-272.08
335805.2157,337.635,-218.868,981.429,3902.5,-10176.25,14927.5,-104.88,3.04,-256.88
335805.2657,367.281,-202.52,973.682,19871.25,-4156.25,16161.25,-103.36,-15.2,-262.96
335805.3157,327.753,-60.634,916.586,11252.5,-5993.75,3351.25,-104.88,0.0,-262.96
335805.3659,384.117,-50.325,977.22,-1846.25,5801.25,-542.5,-95.76,-13.68,-264.48
335805.4157,284.687,-18.117,989.786,-4690.0,7262.5,-4681.25,-82.08,-12.16,-259.92
335805.4658,219.783,-87.413,989.237,-20580.0,-6431.25,2336.25,-117.04,-3.04,-255.36
335805.5157,319.762,-155.306,951.783,-14551.25,-7315.0,4768.75,-101.84,0.0,-259.92
335805.5657,302.743,-162.687,977.525,-7175.0,2966.25,-542.5,-86.64,7.6,-272.08
335805.6157,268.461,-167.14,1003.816,-1960.0,-927.5,-5617.5,-88.16,15.2,-275.12
335805.6657,266.265,-160.735,993.446,-1093.75,-7595.0,-4340.0,-101.84,3.04,-275.12
335805.7157,316.651,-146.461,967.277,6116.25,-9213.75,-2100.0,-91.2,10.64,-279.68
335805.7657,351.177,-99.735,957.639,4462.5,-8347.5,-988.75,-88.16,-3.04,-267.52
335805.8157,337.574,-70.699,960.445,5355.0,-5022.5,-2231.25,-80.56,-4.56,-276.64
335805.8657,321.592,-93.452,970.937,-1225.0,-2310.0,8.75,-100.32,1.52,-273.6
335805.9157,295.545,-107.665,973.926,-743.75,-2555.0,2817.5,-77.52,-15.2,-273.6
335805.9657,288.896,-131.394,988.993,2590.0,-6273.75,8443.75,-95.76,0.0,-262.96
335806.0157,331.901,-129.625,990.701,7253.75,-3963.75,9817.5,-72.96,0.0,-273.6
335806.0657,296.46,-70.028,973.011,6247.5,-6606.25,2450.0,-88.16,-7.6,-282.72
335806.1157,340.807,-91.195,969.229,-3316.25,-5792.5,656.25,-95.76,-3.04,-284.24
335806.1657,303.78,-66.246,965.752,-3202.5,-4410.0,-3360.0,-91.2,-7.6,-270.56
335806.2157,306.159,-94.123,973.987,-10675.0,-6947.5,-2642.5,-94.24,-19.76,-259.92
335806.2657,312.259,-152.439,967.399,-8120.0,-6308.75,2642.5,-80.56,6.08,-273.6
335806.3157,312.869,-149.694,976.122,918.75,-3972.5,1618.75,-97.28,-19.76,-267.52
335806.3657,306.342,-118.279,977.586,726.25,-3465.0,-1706.25,-83.6,-6.08,-264.48
335806.4157,289.079,-69.235,981.978,-4646.25,-3990.0,-5652.5,-94.24,-13.68,-266.0
335806.4657,290.97,-73.871,955.809,-15802.5,-6098.75,-8610.0,-86.64,-6.08,-272.08
335806.5157,318.115,-203.679,984.662,-12460.0,-9371.25,1312.5,-98.8,-15.2,-261.44
335806.5657,332.328,-213.073,972.157,367.5,-6387.5,2231.25,-91.2,3.04,-261.44
335806.6157,306.159,-117.242,969.29,7210.0,-3972.5,-306.25,-85.12,1.52,-261.44
335806.6657,342.027,-93.269,960.689,-5416.25,-4725.0,-2135.0,-109.44,6.08,-275.12
335806.7157,318.237,-130.967,973.377,-6921.25,-3613.75,78.75,-100.32,-6.08,-273.6
335806.7657,327.692,-148.23,952.149,-8995.0,-7516.25,2266.25,-83.6,0.0,-264.48
335806.8157,345.687,-194.59,970.327,-6510.0,-4095.0,3780.0,-92.72,1.52,-264.48
335806.8657,303.414,-177.937,960.811,-2240.0,-7428.75,385.0,-86.64,9.12,-259.92
335806.9157,340.868,-161.589,958.798,4243.75,-350.0,-3465.0,-104.88,10.64,-273.6
335806.9657,299.388,-110.41,973.499,5390.0,3325.0,-6177.5,-83.6,-10.64,-261.44
335807.0157,303.353,-86.803,986.004,997.5,4060.0,-6623.75,-100.32,-7.6,-275.12
335807.0657,250.588,-92.781,996.191,-1767.5,5031.25,-6702.5,-107.92,0.0,-259.92
335807.1157,295.728,-121.39,994.422,726.25,-402.5,980.0,-95.76,3.04,-284.24
335807.1657,259.433,-113.948,988.688,0.0,-1163.75,7647.5,-83.6,-7.6,-279.68
335807.2157,268.827,-146.583,993.995,2896.25,-4418.75,10456.25,-77.52,-24.32,-282.72
335807.2657,314.699,-137.25,969.961,3220.0,-12346.25,9852.5,-104.88,3.04,-267.52
335807.3157,332.389,-105.408,943.426,2870.0,-11488.75,1680.0,-98.8,6.08,-264.48
335807.3657,336.232,-99.552,943.548,-1505.0,-3955.0,-2913.75,-94.24,-13.68,-279.68
335807.4157,296.826,-112.545,976.061,-3543.75,2782.5,-3622.5,-91.2,-6.08,-291.84
335807.4657,274.988,-107.726,993.568,-4637.5,358.75,-5827.5,-85.12,-3.04,-275.12
335807.5157,258.579,-89.914,987.834,-7437.5,-2310.0,-5915.0,-92.72,-12.16,-269.04
335807.5657,294.874,-125.477,976.061,-5118.75,-5652.5,2345.0,-83.6,0.0,-281.2
335807.6157,287.981,-135.42,987.041,-2458.75,-1592.5,7822.5,-95.76,-3.04,-282.72
335807.6657,249.917,-112.24,996.557,1032.5,-3797.5,6991.25,-82.08,-15.2,-264.48
335807.7157,255.285,-101.992,992.592,-1557.5,-6912.5,1531.25,-76.0,0.0,-276.64
335807.7657,273.646,-121.146,981.978,-7481.25,-9345.0,-3045.0,-88.16,18.24,-272.08
335807.8157,286.212,-195.993,986.065,-5775.0,-9108.75,1408.75,-80.56,3.04,-284.24
335807.8657,275.049,-178.913,989.664,6151.25,-7052.5,411.25,-95.76,-9.12,-288.8
335807.9157,265.289,-91.988,975.329,3937.5,-10928.75,-2651.25,-97.28,1.52,-284.24
335807.9657,298.656,-85.461,979.111,-6230.0,-12416.25,-5223.75,-110.96,-15.2,-275.12
335808.0158,302.621,-118.645,972.828,-7761.25,-10902.5,-5495.0,-80.56,0.0,-262.96
335808.0657,308.66,-122.0,961.848,-4830.0,-9021.25,-3053.75,-100.32,6.08,-270.56
335808.1158,316.59,-121.329,948.672,-5005.0,-8443.75,-4243.75,-101.84,-9.12,-270.56
335808.1657,327.082,-151.158,977.891,-2126.25,-6667.5,-4130.0,-86.64,-4.56,-275.12
335808.2157,320.433,-100.711,958.92,-5267.5,-10106.25,-5127.5,-117.04,-13.68,-272.08
335808.2657,324.398,-141.825,967.155,-6571.25,-9065.0,105.0,-117.04,6.08,-266.0
335808.3157,333.243,-161.406,963.739,-945.0,-9073.75,4366.25,-104.88,3.04,-269.04
335808.3657,335.866,-138.897,958.249,-192.5,-7201.25,1102.5,-120.08,10.64,-272.08
335808.4157,356.667,-132.431,960.262,61.25,-7183.75,-2948.75,-103.36,-6.08,-259.92
335808.4657,335.622,-104.92,958.127,-2205.0,-6370.0,-4418.75,-109.44,0.0,-253.84
335808.5157,323.788,-98.21,955.321,-4882.5,-6168.75,-5775.0,-107.92,6.08,-267.52
335808.5658,347.7,-130.418,961.299,-6457.5,-6886.25,-2983.75,-110.96,-4.56,-266.0
335808.6157,331.779,-145.058,963.068,-4436.25,-5783.75,-726.25,-112.48,-6.08,-262.96
335808.6657,337.391,-150.243,962.153,-1487.5,-7140.0,1697.5,-106.4,7.6,-262.96
335808.7157,370.392,-134.2,943.121,1295.0,-6886.25,2493.75,-115.52,-7.6,-262.96
335808.7657,359.107,-125.599,947.391,2178.75,-2747.5,4733.75,-98.8,-12.16,-259.92
335808.8157,350.201,-130.784,962.641,4348.75,-971.25,8942.5,-112.48,-12.16,-258.4
335808.8657,313.845,-111.447,980.087,4375.0,-2266.25,8426.25,-97.28,-12.16,-249.28
335808.9157,317.688,-104.859,977.708,315.0,-4331.25,8933.75,-86.64,-7.6,-256.88
335808.9657,327.631,-119.926,968.131,-2616.25,-6413.75,9738.75,-106.4,-4.56,-275.12
335809.0157,332.999,-142.313,967.46,-1592.5,-5783.75,11121.25,-92.72,4.56,-267.52
335809.0657,330.498,-146.766,958.005,1225.0,-8855.0,13632.5,-106.4,-16.72,-247.76
335809.1157,326.228,-129.93,959.957,5530.0,-6790.0,14525.0,-92.72,3.04,-264.48
335809.1657,345.321,-120.231,953.552,6396.25,-9003.75,16520.0,-98.8,-9.12,-266.0
335809.2157,332.023,-124.867,965.569,7455.0,-2791.25,24097.5,-94.24,-4.56,-261.44
335809.2658,307.989,-137.616,973.621,7218.75,-4532.5,25305.0,-94.24,24.32,-272.08
335809.3157,333.426,-138.409,966.728,2537.5,-8636.25,22846.25,-72.96,4.56,-264.48
335809.3657,340.197,-162.809,963.983,-3412.5,-5136.25,8671.25,-76.0,18.24,-284.24
335809.4157,319.396,-157.624,956.175,-8872.5,-8146.25,-5031.25,-92.72,36.48,-253.84
335809.4657,373.869,-165.188,937.143,-14971.25,-4690.0,-21096.25,-82.08,28.88,-262.96
335809.5157,362.889,-183.061,947.513,-16100.0,-113.75,-32926.25,-104.88,4.56,-261.44
335809.5657,355.203,-173.85,948.916,-13317.5,3001.25,-38062.5,-88.16,28.88,-267.52
335809.6157,330.01,-163.907,962.397,-10088.75,5390.0,-38823.75,-97.28,0.0,-250.8
335809.6657,319.518,-147.193,977.891,-9940.0,5241.25,-34982.5,-88.16,0.0,-269.04
335809.7157,313.662,-126.636,966.484,-5416.25,183.75,-23738.75,-101.84,16.72,-284.24
335809.7657,330.254,-128.649,964.227,-1960.0,1592.5,-10815.0,-109.44,-6.08,-275.12
335809.8157,317.017,-128.466,959.957,1400.0,568.75,-3535.0,-106.4,-4.56,-266.0
335809.8657,293.898,-107.787,983.442,1505.0,-1960.0,4042.5,-101.84,-12.16,-253.84
335809.9157,310.49,-103.578,976.305,673.75,-1776.25,8461.25,-110.96,-3.04,-273.6
335809.9657,290.238,-107.543,984.54,-647.5,-4270.0,14350.0,-104.88,1.52,-250.8
335810.0157,299.693,-153.11,985.028,-105.0,-6020.0,17316.25,-89.68,10.64,-276.64
335810.0657,282.552,-149.938,981.856,2003.75,-7043.75,16896.25,-94.24,9.12,-275.12
335810.1157,312.076,-159.393,981.612,341.25,-8531.25,11077.5,-103.36,1.52,-272.08
335810.1657,308.172,-153.232,966.789,-2581.25,-8960.0,3946.25,-103.36,7.6,-269.04
335810.2157,327.021,-157.136,964.105,-3342.5,-8330.0,1347.5,-92.72,-4.56,-273.6
335810.2657,301.584,-156.038,966.118,-988.75,-6737.5,1715.0,-98.8,7.6,-258.4
335810.3157,310.246,-159.759,960.018,918.75,-7358.75,2388.75,-89.68,9.12,-262.96
335810.3657,316.773,-133.895,968.924,-43.75,-5320.0,402.5,-97.28,4.56,-278.16
335810.4157,316.956,-144.082,960.262,-2957.5,-8417.5,-691.25,-103.36,0.0,-279.68
335810.4657,338.855,-144.204,966.423,-630.0,-6273.75,-577.5,-77.52,6.08,-258.4
335810.5157,310.307,-133.224,968.131,-1233.75,-6431.25,157.5,-94.24,-10.64,-272.08
335810.5659,330.498,-143.411,967.765,-752.5,-8391.25,358.75,-98.8,16.72,-267.52
335810.6157,337.33,-137.067,959.103,-1627.5,-5967.5,1181.25,-112.48,-6.08,-264.48
335810.6658,334.219,-137.616,966.667,-1820.0,-7848.75,105.0,-98.8,6.08,-258.4
335810.7157,357.887,-141.459,954.955,-481.25,-5083.75,-630.0,-97.28,10.64,-261.44
335810.7657,343.43,-130.174,957.273,-148.75,-4077.5,-647.5,-97.28,0.0,-264.48
335810.8157,326.167,-125.233,961.055,-2301.25,-2388.75,-35.0,-112.48,22.8,-252.32
335810.8657,336.415,-139.446,958.066,-2843.75,-4488.75,866.25,-112.48,-4.56,-259.92
335810.9157,307.379,-143.289,983.015,-131.25,-2668.75,2450.0,-98.8,7.6,-273.6
335810.9657,308.355,-147.864,969.839,-1723.75,-4926.25,3088.75,-86.64,6.08,-270.56
335811.0157,330.864,-152.134,971.73,1382.5,-6597.5,2843.75,-85.12,-9.12,-262.96
335811.0657,296.887,-125.904,968.375,-4287.5,-5066.25,1435.0,-82.08,9.12,-267.52
335811.1157,324.642,-155.062,970.815,-2310.0,-10010.0,2388.75,-103.36,6.08,-262.96
335811.1657,329.705,-127.856,949.831,-148.75,-6343.75,-1242.5,-98.8,0.0,-247.76
335811.2157,338.489,-136.64,959.042,-2817.5,-6746.25,-901.25,-114.0,4.56,-262.96
335811.2657,339.831,-137.006,948.733,-1671.25,-4602.5,-2030.0,-103.36,-6.08,-264.48
335811.3157,321.836,-127.246,975.146,-656.25,525.0,-3141.25,-94.24,4.56,-249.28
335811.3657,294.02,-128.649,981.063,-2161.25,-2056.25,-3447.5,-88.16,10.64,-255.36
335811.4157,344.345,-135.298,969.656,-2572.5,3237.5,-962.5,-88.16,-7.6,-273.6
335811.4657,270.535,-142.862,981.063,-3412.5,4138.75,-455.0,-106.4,9.12,-273.6
335811.5157,294.691,-140.483,968.68,-1531.25,-3325.0,-3587.5,-100.32,-7.6,-261.44
335811.5657,269.62,-149.084,990.335,-70.0,-7682.5,-4655.0,-88.16,9.12,-278.16
335811.6157,274.5,-136.396,968.741,-1557.5,-14866.25,-6413.75,-92.72,12.16,-255.36
335811.6657,305.061,-141.215,960.75,-1531.25,-15242.5,-6807.5,-94.24,-16.72,-262.96
335811.7157,376.675,-162.748,966.484,787.5,-18917.5,-3430.0,-114.0,-9.12,-253.84
335811.7657,384.788,-142.74,944.341,5276.25,-11777.5,-2240.0,-114.0,-15.2,-253.84
335811.8157,370.27,-98.21,945.439,2835.0,-10955.0,-2012.5,-104.88,-3.04,-261.44
335811.8657,388.631,-87.718,936.289,717.5,-7647.5,-910.0,-112.48,-10.64,-259.92
335811.9157,375.699,-114.253,965.203,778.75,-5328.75,4628.75,-110.96,1.52,-234.08
335811.9657,361.242,-114.741,961.177,4357.5,-13186.25,9642.5,-106.4,1.52,-262.96
335812.0157,388.448,-115.229,938.79,2756.25,-16117.5,12897.5,-112.48,3.04,-266.0
335812.0657,400.648,-113.216,937.265,2555.0,-9292.5,12223.75,-118.56,-6.08,-253.84
335812.1157,395.585,-120.841,937.814,1347.5,-5442.5,7866.25,-118.56,-15.2,-252.32
335812.1657,389.851,-98.271,950.502,-4165.0,-2030.0,-306.25,-106.4,-3.04,-247.76
335812.2157,358.619,-119.316,945.744,-5923.75,-2021.25,-2310.0,-129.2,-7.6,-235.6
335812.2657,366.0,-124.623,954.284,-5635.0,-2537.5,-1741.25,-107.92,4.56,-261.44
335812.3157,343.308,-120.658,965.874,-5678.75,-2800.0,-3456.25,-118.56,7.6,-262.96
335812.3657,362.096,-138.653,956.541,-5048.75,-2703.75,-2388.75,-109.44,0.0,-258.4
335812.4157,344.345,-147.315,963.739,-4165.0,-3963.75,-2126.25,-117.04,7.6,-252.32
335812.4657,366.549,-155.55,947.33,-2161.25,-5022.5,-1225.0,-115.52,-3.04,-266.0
335812.5157,359.351,-156.343,954.711,-393.75,-4226.25,-770.0,-118.56,6.08,-256.88
335812.5657,364.902,-154.818,959.286,3920.0,-3657.5,-2607.5,-110.96,-15.2,-258.4
335812.6157,351.543,-111.02,963.007,2301.25,-2878.75,-6063.75,-109.44,3.04,-259.92
335812.6657,345.138,-99.979,958.249,-875.0,-5083.75,-8548.75,-121.6,-7.6,-259.92
335812.7157,373.259,-101.748,943.67,-1426.25,-7770.0,-7315.0,-110.96,-18.24,-256.88
335812.7657,373.198,-88.816,963.617,-953.75,-4742.5,-4025.0,-112.48,-13.68,-262.96
335812.8157,372.771,-95.038,957.639,603.75,-6125.0,437.5,-106.4,6.08,-246.24
335812.8657,355.874,-103.517,962.031,4007.5,-8715.0,4611.25,-115.52,-3.04,-246.24
335812.9157,370.026,-93.33,947.391,5573.75,-9065.0,4427.5,-114.0,-21.28,-252.32
335812.9657,384.239,-61.915,952.027,3762.5,-7463.75,612.5,-104.88,-28.88,-258.4
335813.0157,382.287,-51.362,948.977,-1076.25,-7017.5,-3587.5,-126.16,-18.24,-281.2
335813.0657,371.856,-71.37,958.981,-7131.25,-6895.0,-3648.75,-107.92,-25.84,-249.28
335813.1157,375.211,-98.576,951.722,-6658.75,-8741.25,-612.5,-120.08,-6.08,-262.96
335813.1657,375.699,-115.473,954.894,-4191.25,-7988.75,3360.0,-117.04,-28.88,-246.24
335813.2158,381.86,-118.584,952.515,-2266.25,-7560.0,6422.5,-112.48,-10.64,-266.0
335813.2657,381.067,-107.543,953.552,-2187.5,-7708.75,4261.25,-130.72,-9.12,-253.84
335813.3158,374.784,-122.183,957.517,-5197.5,-9493.75,3298.75,-124.64,0.0,-258.4
335813.3657,372.222,-127.002,948.855,-1645.0,-9581.25,2222.5,-110.96,0.0,-252.32
335813.4157,380.701,-124.013,947.757,-2458.75,-11725.0,2205.0,-120.08,-7.6,-249.28
335813.4657,397.11,-109.617,941.291,-4077.5,-12267.5,61.25,-124.64,0.0,-255.36
335813.5157,403.027,-124.989,938.79,-4252.5,-11462.5,1207.5,-133.76,3.04,-238.64
335813.5657,410.591,-125.05,942.084,-2922.5,-10333.75,1382.5,-130.72,-16.72,-253.84
335813.6158,413.031,-125.233,937.814,-2537.5,-11348.75,1461.25,-133.76,-24.32,-240.16
335813.6657,399.184,-126.453,941.352,-507.5,-10981.25,1575.0,-139.84,-4.56,-237.12
335813.7157,422.242,-115.29,929.701,-1610.0,-13212.5,1102.5,-120.08,-6.08,-244.72
335813.7657,461.282,-127.002,922.259,-3736.25,-12932.5,910.0,-144.4,-4.56,-249.28
335813.8157,444.995,-133.529,917.074,-341.25,-8977.5,-323.75,-135.28,-12.16,-232.56
335813.8657,449.021,-116.266,915.427,-2353.75,-10246.25,-568.75,-129.2,-6.08,-235.6
335813.9157,453.474,-131.455,917.318,-1951.25,-8723.75,-1163.75,-126.16,-3.04,-235.6
335813.9657,458.354,-124.013,919.026,-1067.5,-7796.25,-717.5,-136.8,10.64,-229.52
335814.0157,446.825,-129.32,917.318,-2143.75,-8916.25,1102.5,-132.24,-6.08,-246.24
335814.0657,467.748,-131.699,914.756,-463.75,-7866.25,717.5,-124.64,10.64,-226.48
335814.1157,453.047,-114.985,910.852,-1680.0,-6378.75,647.5,-123.12,-24.32,-235.6
335814.1657,471.469,-134.688,916.403,-2038.75,-8303.75,-682.5,-120.08,-12.16,-229.52
335814.2157,472.262,-133.346,907.497,603.75,-5661.25,-665.0,-148.96,3.04,-221.92
335814.2657,474.702,-122.915,910.913,-1093.75,-4961.25,-1041.25,-141.36,-15.2,-228.0
335814.3158,465.064,-134.505,914.512,1592.5,-2205.0,-2555.0,-130.72,-9.12,-224.96
335814.3657,454.633,-105.713,916.83,-2222.5,-2791.25,-2773.75,-147.44,-9.12,-234.08
335814.4157,446.093,-114.68,917.318,866.25,-3605.0,-2485.0,-133.76,-19.76,-231.04
335814.4657,461.221,-98.21,912.011,-1172.5,-3937.5,-726.25,-138.32,0.0,-237.12
335814.5157,459.086,-104.798,915.61,-3430.0,-2406.25,-253.75,-141.36,-13.68,-241.68
335814.5657,447.191,-117.303,917.318,8.75,-1172.5,-61.25,-130.72,-10.64,-223.44
335814.6157,446.947,-116.205,920.429,892.5,-1540.0,542.5,-135.28,-18.24,-238.64
335814.6657,428.403,-106.262,926.651,-1102.5,-1041.25,17.5,-145.92,-15.2,-235.6
335814.7157,431.88,-116.632,931.165,-376.25,-3867.5,840.0,-142.88,-18.24,-241.68
335814.7657,439.932,-98.332,921.588,78.75,-3062.5,682.5,-133.76,-3.04,-256.88
335814.8157,439.322,-96.868,928.664,-1863.75,-2362.5,-1286.25,-127.68,-13.68,-243.2
335814.8657,438.651,-94.855,929.823,-2747.5,-1636.25,-1618.75,-135.28,-12.16,-240.16
335814.9157,427.61,-104.249,931.409,-3211.25,-2660.0,402.5,-129.2,-18.24,-232.56
335814.9657,427.366,-112.24,934.276,-743.75,-3640.0,1680.0,-133.76,-15.2,-237.12
335815.0157,426.207,-97.417,933.178,-1557.5,-3622.5,971.25,-135.28,-18.24,-231.04
335815.0657,426.573,-105.835,932.812,-2992.5,-4602.5,-87.5,-127.68,-13.68,-246.24
335815.1157,426.817,-110.044,931.226,-1942.5,-4462.5,-96.25,-124.64,-12.16,-232.56
335815.1657,428.22,-108.092,928.359,-1653.75,-4410.0,350.0,-126.16,0.0,-244.72
335815.2157,427.976,-103.09,929.701,-1942.5,-4987.5,682.5,-135.28,-7.6,-228.0
335815.2657,426.634,-102.663,927.749,-3158.75,-3937.5,262.5,-127.68,0.0,-240.16
335815.3157,426.512,-114.192,932.202,-1251.25,-4663.75,-271.25,-145.92,-15.2,-237.12
335815.3657,422.12,-110.593,931.226,-1216.25,-4786.25,1566.25,-124.64,-15.2,-237.12
335815.4157,427.244,-106.506,930.677,-2318.75,-4856.25,2598.75,-138.32,-12.16,-238.64
335815.4657,429.44,-118.34,932.568,-1391.25,-4147.5,2668.75,-117.04,-15.2,-240.16
335815.5157,413.763,-110.41,931.531,-1618.75,-4707.5,1627.5,-126.16,-19.76,-240.16
335815.5657,433.527,-118.645,933.849,-2336.25,-5136.25,822.5,-126.16,-18.24,-221.92
335815.6157,423.828,-114.68,932.995,-1618.75,-4322.5,848.75,-118.56,0.0,-249.28
335815.6657,422.852,-115.473,931.043,-2266.25,-6256.25,1050.0,-123.12,-6.08,-237.12
335815.7157,436.76,-116.327,930.25,-1093.75,-5635.0,752.5,-123.12,-15.2,-246.24
335815.7659,429.745,-110.715,927.81,-1618.75,-5022.5,-481.25,-132.24,-9.12,-246.24
335815.8157,434.686,-116.998,927.505,-2152.5,-6037.5,-280.0,-132.24,-19.76,-238.64
335815.8658,438.956,-109.434,929.152,-1785.0,-4077.5,472.5,-126.16,-10.64,-224.96
335815.9157,422.791,-117.181,931.043,-1260.0,-4506.25,1242.5,-118.56,-22.8,-229.52
335815.9657,429.562,-113.643,932.324,-1846.25,-4410.0,1242.5,-124.64,-3.04,-238.64
335816.0157,428.83,-109.068,924.821,-2441.25,-4856.25,358.75,-139.84,-10.64,-235.6
335816.0657,431.026,-132.553,931.47,367.5,-3386.25,437.5,-120.08,-19.76,-212.8
335816.1157,426.024,-104.31,930.128,-1548.75,-3780.0,43.75,-132.24,-4.56,-234.08
335816.1657,420.839,-107.665,934.154,-3316.25,-4383.75,-157.5,-132.24,-6.08,-224.96
335816.2157,430.233,-126.148,932.324,-1793.75,-4541.25,1723.75,-117.04,-13.68,-228.0
335816.2657,422.364,-115.107,928.298,-945.0,-3850.0,1023.75,-115.52,-22.8,-234.08
335816.3157,426.207,-121.817,932.019,-2283.75,-4121.25,96.25,-144.4,-19.76,-229.52
335816.3657,421.51,-119.499,931.104,-1181.25,-3526.25,306.25,-127.68,12.16,-232.56
335816.4157,423.95,-115.29,929.03,-1391.25,-4418.75,761.25,-138.32,-24.32,-234.08
335816.4657,427.915,-117.425,935.923,-883.75,-3675.0,306.25,-120.08,6.08,-234.08
335816.5157,417.972,-112.301,938.79,-612.5,-3360.0,-446.25,-126.16,-13.68,-247.76
335816.5657,413.763,-107.055,937.265,-2082.5,-4943.75,-455.0,-127.68,-13.68,-217.36
335816.6157,415.837,-109.739,936.411,-2275.0,-3473.75,122.5,-145.92,-19.76,-243.2
335816.6657,414.007,-113.582,933.361,-2126.25,-4838.75,1102.5,-139.84,-6.08,-238.64
335816.7157,419.375,-114.375,931.348,-2633.75,-5118.75,1592.5,-109.44,-19.76,-218.88
335816.7657,420.473,-120.658,931.714,-3587.5,-5057.5,1662.5,-130.72,-10.64,-244.72
335816.8157,421.632,-139.812,941.474,-1050.0,-3832.5,752.5,-123.12,-13.68,-247.76
335816.8657,405.955,-110.41,936.289,-1592.5,-3718.75,332.5,-126.16,-7.6,-238.64
335816.9157,401.502,-112.118,938.912,-2896.25,-5398.75,472.5,-145.92,-16.72,-229.52
335816.9657,421.388,-129.625,933.849,-1820.0,-6247.5,2362.5,-120.08,-9.12,-246.24
335817.0157,417.362,-116.51,933.483,-1680.0,-4707.5,2038.75,-129.2,-15.2,-240.16
335817.0658,417.362,-125.782,934.276,-2336.25,-5057.5,1015.0,-138.32,1.52,-231.04
335817.1157,410.896,-131.15,934.276,-1513.75,-4620.0,796.25,-114.0,0.0,-252.32
335817.1657,412.238,-126.636,933.056,-1085.0,-5442.5,700.0,-132.24,-9.12,-250.8
335817.2157,429.562,-124.806,933.117,-918.75,-5626.25,-420.0,-120.08,-3.04,-246.24
335817.2657,413.824,-113.948,936.167,-1190.0,-5232.5,-1268.75,-120.08,1.52,-234.08
335817.3157,420.473,-113.704,930.372,-1986.25,-5346.25,-638.75,-129.2,6.08,-252.32
335817.3657,415.471,-120.231,934.398,-1207.5,-3718.75,717.5,-120.08,-4.56,-246.24
335817.4157,410.774,-119.621,935.618,-1146.25,-4567.5,1321.25,-127.68,4.56,-228.0
335817.4657,417.118,-117.852,933.422,-1575.0,-5328.75,551.25,-118.56,-9.12,-240.16
335817.5157,414.617,-113.948,930.311,-2817.5,-4865.0,-376.25,-132.24,-9.12,-241.68
335817.5657,425.048,-137.677,938.424,-1732.5,-4786.25,577.5,-132.24,-3.04,-247.76
335817.6157,413.092,-104.432,933.3,-875.0,-4060.0,481.25,-110.96,-9.12,-237.12
335817.6657,412.177,-119.377,936.655,-2511.25,-5906.25,848.75,-127.68,-19.76,-238.64
335817.7157,406.26,-128.588,940.376,-1898.75,-5521.25,1907.5,-126.16,0.0,-240.16
335817.7657,403.21,-122.366,935.801,-1750.0,-10657.5,1102.5,-121.6,0.0,-246.24
335817.8157,431.392,-117.364,930.128,-1321.25,-11112.5,1356.25,-130.72,-6.08,-231.04
335817.8657,421.632,-122.244,928.786,-595.0,-7551.25,1557.5,-136.8,-15.2,-234.08
335817.9157,449.082,-125.538,920.185,-1960.0,-6693.75,2555.0,-144.4,-4.56,-229.52
335817.9658,431.026,-129.442,926.712,-385.0,-5145.0,1347.5,-123.12,3.04,-243.2
335818.0157,440.481,-115.351,923.906,-595.0,-3053.75,-568.75,-124.64,-15.2,-240.16
335818.0657,430.111,-115.534,927.688,-1907.5,-2327.5,-1102.5,-126.16,4.56,-241.68
335818.1157,428.769,-128.161,928.664,-1076.25,-1793.75,157.5,-115.52,-10.64,-240.16
335818.1657,412.665,-115.107,935.74,-682.5,-4252.5,1050.0,-142.88,-9.12,-249.28
335818.2157,419.07,-108.885,930.25,-3088.75,-5136.25,420.0,-129.2,-15.2,-238.64
335818.2657,432.429,-115.29,932.507,-1400.0,-3806.25,-166.25,-127.68,-4.56,-252.32
335818.3157,433.222,-129.686,934.825,-3097.5,-3473.75,358.75,-114.0,7.6,-220.4
335818.3657,426.024,-120.536,930.311,577.5,-2896.25,-166.25,-129.2,-13.68,-229.52
335818.4159,428.159,-118.096,937.997,-980.0,-9126.25,901.25,-115.52,-12.16,-252.32
335818.4657,428.098,-120.963,933.666,-988.75,-1496.25,1391.25,-126.16,9.12,-229.52
335818.5158,428.037,-119.56,929.701,140.0,1198.75,2765.0,-117.04,-4.56,-241.68
335818.5657,383.446,-118.34,945.439,-1058.75,-3368.75,2765.0,-129.2,0.0,-231.04
335818.6157,407.663,-119.438,944.036,-1960.0,-5285.0,1303.75,-132.24,0.0,-247.76
335818.6657,398.879,-129.625,940.925,-2502.5,-4620.0,306.25,-118.56,-22.8,-244.72
335818.7157,410.225,-124.928,931.592,-1680.0,-5661.25,-175.0,-127.68,-16.72,-241.68
335818.7657,420.961,-118.645,929.457,-1085.0,-1951.25,-1155.0,-136.8,-12.16,-250.8
335818.8157,405.162,-120.963,935.069,-1820.0,-3386.25,-1347.5,-104.88,-4.56,-229.52
335818.8657,401.441,-120.719,940.071,-822.5,-3806.25,-26.25,-114.0,-3.04,-231.04
335818.9157,401.38,-115.778,944.585,-1540.0,-4068.75,700.0,-110.96,0.0,-244.72
335818.9657,394.426,-111.386,935.984,-3010.0,-5687.5,866.25,-124.64,13.68,-250.8
335819.0157,422.608,-117.425,932.019,-1347.5,-5337.5,113.75,-118.56,-6.08,-250.8
335819.0657,408.456,-132.492,943.243,-2135.0,-5118.75,-70.0,-120.08,-13.68,-246.24
335819.1157,409.737,-120.78,935.984,-8.75,-5083.75,-971.25,-114.0,-18.24,-224.96
335819.1657,396.744,-115.534,941.474,-2826.25,-5976.25,-1015.0,-112.48,-12.16,-247.76
335819.2157,413.458,-127.063,936.533,-2345.0,-4970.0,-385.0,-118.56,-15.2,-240.16
335819.2657,413.641,-120.292,935.618,-1601.25,-3815.0,-315.0,-124.64,0.0,-243.2
335819.3157,416.142,-123.403,937.875,-1365.0,-2318.75,183.75,-129.2,-6.08,-241.68
335819.3657,402.844,-114.619,942.755,-1321.25,-1977.5,1111.25,-112.48,-6.08,-243.2
335819.4157,380.274,-124.867,948.062,-2345.0,-5363.75,1443.75,-112.48,0.0,-249.28
335819.4657,412.482,-136.213,937.143,-1583.75,-5355.0,2100.0,-107.92,-12.16,-246.24
335819.5157,404.491,-121.939,933.239,-691.25,-3403.75,1260.0,-101.84,-10.64,-250.8
335819.5657,397.049,-125.843,942.328,-1767.5,-2931.25,805.0,-120.08,-22.8,-250.8
335819.6157,384.483,-122.61,946.598,-2310.0,-2651.25,840.0,-124.64,-7.6,-255.36
335819.6657,397.415,-130.235,942.023,-726.25,-4086.25,1015.0,-129.2,-15.2,-243.2
335819.7157,378.383,-119.377,948.306,-4077.5,-2152.5,341.25,-118.56,-4.56,-246.24
335819.7657,380.701,-113.765,948.794,-2773.75,-6851.25,918.75,-123.12,3.04,-252.32
335819.8157,425.841,-125.477,925.919,-2126.25,-4042.5,2108.75,-123.12,-10.64,-234.08
335819.8657,384.849,-111.508,942.877,-1846.25,-3867.5,1137.5,-107.92,-15.2,-252.32
335819.9157,388.692,-118.096,943.792,-3097.5,-5810.0,1155.0,-120.08,1.52,-246.24
335819.9657,399.855,-133.224,943.304,-2091.25,-5241.25,1242.5,-106.4,-12.16,-243.2
335820.0157,400.648,-134.688,934.398,-1023.75,-2852.5,1242.5,-124.64,-7.6,-259.92
335820.0657,397.354,-138.104,943.182,-918.75,-5075.0,402.5,-109.44,-4.56,-250.8
335820.1157,391.132,-123.952,946.354,-1347.5,-2546.25,-638.75,-120.08,-6.08,-241.68
335820.1657,388.021,-126.087,944.463,-2231.25,-4252.5,-1321.25,-107.92,-7.6,-246.24
335820.2157,390.949,-127.307,945.561,-603.75,-4751.25,-1312.5,-126.16,-3.04,-241.68
335820.2658,394.304,-117.547,944.158,-542.5,-3841.25,-813.75,-123.12,-12.16,-244.72
335820.3157,388.204,-120.597,944.158,-2686.25,-3036.25,-700.0,-118.56,-18.24,-258.4
335820.3657,379.115,-120.902,945.805,-2012.5,-8802.5,831.25,-117.04,13.68,-262.96
335820.4157,399.001,-125.721,946.171,-2476.25,-5337.5,1233.75,-123.12,-9.12,-252.32
335820.4657,386.618,-120.109,941.474,-1601.25,-5993.75,1662.5,-115.52,0.0,-253.84
335820.5157,366.732,-129.32,946.415,-2467.5,-7805.0,2021.25,-118.56,10.64,-247.76
335820.5657,408.761,-144.143,945.012,-1505.0,-7008.75,3211.25,-135.28,-15.2,-243.2
335820.6157,367.342,-129.93,950.258,-586.25,-5311.25,1688.75,-101.84,7.6,-241.68
335820.6657,390.095,-125.233,941.901,-612.5,-6720.0,-157.5,-135.28,-7.6,-250.8
335820.7157,394.975,-139.08,947.086,-2257.5,-7262.5,-717.5,-106.4,-10.64,-262.96
335820.7657,392.291,-120.597,939.705,-1767.5,-4690.0,87.5,-110.96,0.0,-240.16
335820.8157,400.77,-127.612,944.829,-2353.75,-5897.5,1365.0,-114.0,7.6,-240.16
335820.8657,392.23,-132.004,945.988,-1785.0,-4007.5,8.75,-101.84,-4.56,-252.32
335820.9157,391.559,-124.745,939.156,-2108.75,-3351.25,-1155.0,-124.64,-13.68,-244.72
335820.9657,402.295,-129.564,943.426,-1828.75,-5005.0,-1601.25,-110.96,0.0,-226.48
335821.0157,398.452,-118.157,939.644,-673.75,-3491.25,-1750.0,-133.76,7.6,-240.16
335821.0659,390.522,-114.009,943.06,-2817.5,-3115.0,-927.5,-115.52,13.68,-247.76
335821.1157,388.753,-128.283,945.317,-1662.5,-2607.5,-61.25,-117.04,-3.04,-238.64
335821.1658,393.816,-123.891,941.291,26.25,-5503.75,1006.25,-124.64,-7.6,-258.4
335821.2157,380.579,-112.911,946.476,-1802.5,-5101.25,840.0,-117.04,-4.56,-229.52
335821.2657,391.254,-121.756,940.498,-4217.5,-5941.25,787.5,-124.64,-10.64,-249.28
335821.3157,396.805,-139.385,946.72,-1855.0,-4147.5,1321.25,-126.16,12.16,-249.28
335821.3657,380.884,-116.632,946.781,-2231.25,-4786.25,980.0,-104.88,-3.04,-264.48
335821.4157,382.287,-131.516,945.073,-3508.75,-6938.75,332.5,-127.68,-13.68,-255.36
335821.4657,388.997,-139.812,946.72,-2808.75,-6308.75,682.5,-114.0,3.04,-246.24
335821.5157,389.607,-125.66,941.169,-43.75,-4173.75,-350.0,-123.12,-6.08,-255.36
335821.5657,399.611,-133.163,941.047,-1321.25,-4532.5,-813.75,-112.48,-6.08,-247.76
335821.6157,410.713,-117.547,931.653,3578.75,-8295.0,-656.25,-121.6,-6.08,-247.76
335821.6657,442.433,-116.449,913.048,-472.5,-4961.25,3438.75,-124.64,-16.72,-249.28
335821.7157,414.129,-144.692,926.651,-883.75,-1216.25,5958.75,-109.44,1.52,-244.72
335821.7657,381.86,-149.145,939.949,341.25,-796.25,2633.75,-114.0,-7.6,-253.84
335821.8157,366.061,-158.234,955.443,1260.0,-2441.25,726.25,-129.2,-15.2,-244.72
335821.8657,356.484,-148.657,959.469,1540.0,-2467.5,-3508.75,-120.08,-4.56,-250.8
335821.9157,381.799,-112.667,945.073,2835.0,-3255.0,-8706.25,-103.36,-6.08,-256.88
335821.9657,369.782,-83.753,959.286,-1382.5,-796.25,-10342.5,-114.0,-12.16,-243.2
335822.0157,355.752,-91.134,960.994,-5547.5,-1277.5,-8286.25,-118.56,-13.68,-256.88
335822.0657,364.719,-124.989,963.129,-2108.75,-5127.5,1750.0,-110.96,-15.2,-244.72
335822.1157,359.168,-119.438,955.931,1977.5,-4970.0,3753.75,-110.96,-9.12,-250.8
335822.1657,380.884,-94.733,947.086,-1487.5,-5547.5,2021.25,-133.76,-10.64,-249.28
335822.2157,381.25,-118.645,955.138,-3255.0,-3692.5,148.75,-112.48,-9.12,-250.8
335822.2657,372.344,-109.251,962.214,831.25,-3718.75,-183.75,-112.48,-7.6,-261.44
335822.3157,367.342,-109.556,968.375,2896.25,-4576.25,638.75,-112.48,-10.64,-241.68
335822.3657,369.416,-69.845,950.38,1181.25,-7647.5,-1610.0,-107.92,4.56,-261.44
335822.4157,394.304,-128.344,949.465,-3071.25,-5792.5,2686.25,-115.52,1.52,-237.12
335822.4657,374.418,-115.168,945.988,4480.0,-5031.25,1373.75,-112.48,-18.24,-258.4
335822.5157,414.129,-98.759,949.038,-2222.5,-9992.5,5145.0,-117.04,-24.32,-253.84
335822.5657,397.598,-104.615,941.535,4803.75,-1977.5,5232.5,-118.56,-13.68,-244.72
335822.6157,357.399,-80.276,945.866,-638.75,-4217.5,2030.0,-110.96,-10.64,-249.28
335822.6657,377.651,-83.326,943.06,-4908.75,-4515.0,-6693.75,-115.52,-16.72,-267.52
335822.7157,384.056,-82.899,944.219,-4523.75,-3893.75,-8898.75,-118.56,-21.28,-256.88
335822.7657,392.291,-75.457,951.905,-5110.0,-5355.0,-5442.5,-118.56,-27.36,-261.44
335822.8157,377.163,-83.936,954.65,-5136.25,1435.0,-1102.5,-107.92,-10.64,-243.2
335822.8657,351.909,-99.247,963.19,-5258.75,-2108.75,1076.25,-126.16,-15.2,-252.32
335822.9157,363.987,-120.658,956.602,-2266.25,-3640.0,5705.0,-114.0,-7.6,-261.44
335822.9657,367.708,-107.238,951.417,61.25,-4462.5,5188.75,-112.48,-13.68,-256.88
335823.0157,378.322,-121.878,959.835,-778.75,-4191.25,5337.5,-124.64,-13.68,-243.2
335823.0657,366.854,-107.848,952.149,-105.0,-4637.5,2292.5,-112.48,-18.24,-246.24
335823.1157,368.867,-106.018,952.027,-2957.5,-5740.0,175.0,-112.48,-13.68,-244.72
335823.1657,374.174,-116.144,952.21,-2178.75,-6212.5,-1732.5,-117.04,-3.04,-253.84
335823.2157,371.246,-105.713,947.208,-2100.0,-4200.0,-875.0,-110.96,-13.68,-252.32
335823.2657,365.878,-106.75,955.26,-2353.75,-4252.5,848.75,-123.12,-10.64,-261.44
335823.3157,363.804,-108.58,962.153,-1828.75,-4681.25,1085.0,-100.32,-12.16,-249.28
335823.3657,371.673,-101.992,945.805,-3902.5,-5433.75,-490.0,-124.64,-9.12,-264.48
335823.4157,375.089,-112.24,956.358,-4366.25,-4418.75,-1093.75,-114.0,-7.6,-255.36
335823.4657,364.048,-112.179,952.454,-3220.0,-6273.75,953.75,-124.64,-4.56,-256.88
335823.5157,381.25,-122.366,956.907,105.0,-5390.0,3010.0,-124.64,-24.32,-252.32
335823.5657,367.708,-110.593,949.953,-1207.5,-5311.25,3500.0,-117.04,6.08,-247.76
335823.6159,376.431,-120.963,950.624,-2196.25,-3972.5,-87.5,-107.92,-6.08,-261.44
335823.6657,372.588,-118.157,954.894,-1356.25,-2423.75,-1557.5,-101.84,-19.76,-261.44
335823.7159,354.959,-103.517,956.846,-2581.25,-4558.75,-2047.5,-114.0,-12.16,-256.88
335823.7657,363.987,-114.741,959.164,-2310.0,-4646.25,-1443.75,-127.68,-3.04,-252.32
335823.8158,357.765,-115.839,956.846,-805.0,-5810.0,1566.25,-109.44,1.52,-258.4
335823.8657,370.941,-121.146,953.552,560.0,-5538.75,2222.5,-114.0,7.6,-267.52
335823.9157,368.196,-111.447,951.234,901.25,-4663.75,1601.25,-103.36,-16.72,-256.88
335823.9657,363.072,-103.334,954.04,-245.0,-4742.5,-595.0,-110.96,-10.64,-258.4
335824.0157,368.257,-100.101,957.517,-1566.25,-5521.25,-1828.75,-120.08,-21.28,-262.96
335824.0657,369.416,-99.735,952.881,-2703.75,-5853.75,-1321.25,-104.88,-15.2,-259.92
335824.1157,372.222,-103.09,951.234,-1776.25,-4926.25,262.5,-115.52,-16.72,-253.84
335824.1657,365.817,-102.48,952.698,-2135.0,-5547.5,1155.0,-109.44,-24.32,-266.0
335824.2157,382.043,-115.107,952.027,-3272.5,-6238.75,1242.5,-106.4,-15.2,-258.4
335824.2657,371.185,-98.759,948.733,-367.5,-3955.0,700.0,-136.8,-6.08,-261.44
335824.3157,361.486,-103.151,954.833,-2213.75,-5188.75,1531.25,-92.72,-19.76,-256.88
335824.3657,374.357,-113.277,951.844,-2476.25,-4593.75,1417.5,-121.6,-12.16,-264.48
335824.4157,366.122,-117.486,958.371,-1960.0,-4532.5,1785.0,-103.36,-16.72,-269.04
335824.4657,362.157,-113.704,952.088,-3211.25,-5923.75,1128.75,-107.92,-7.6,-262.96
335824.5157,378.139,-123.647,952.698,-1636.25,-4593.75,1015.0,-117.04,-16.72,-250.8
335824.5657,363.255,-118.096,952.881,-1076.25,-3981.25,525.0,-92.72,-12.16,-252.32
335824.6157,363.377,-114.009,955.138,-2030.0,-5853.75,-183.75,-120.08,-13.68,-264.48
335824.6657,374.296,-120.17,951.417,-1452.5,-6221.25,236.25,-97.28,-18.24,-259.92
335824.7157,372.893,-106.811,946.232,-280.0,-4147.5,735.0,-130.72,3.04,-250.8
335824.7657,374.113,-110.349,956.541,-2196.25,-3403.75,708.75,-117.04,-21.28,-262.96
335824.8157,355.508,-115.961,958.188,-1610.0,-3316.25,402.5,-106.4,-18.24,-246.24
335824.8657,361.486,-114.924,959.652,-1583.75,-5075.0,472.5,-121.6,-15.2,-250.8
335824.9157,363.011,-108.763,956.358,-2257.5,-7043.75,113.75,-123.12,0.0,-246.24
335824.9657,374.174,-114.802,948.367,-2668.75,-6737.5,612.5,-117.04,-12.16,-255.36
335825.0157,395.524,-121.085,945.561,271.25,-4873.75,577.5,-120.08,-4.56,-253.84
335825.0657,371.795,-103.395,950.502,-1233.75,-3640.0,26.25,-117.04,1.52,-256.88
335825.1157,375.516,-111.203,952.698,-2458.75,-4278.75,-17.5,-121.6,-4.56,-253.84
335825.1657,366.854,-115.412,954.833,-1820.0,-3771.25,1058.75,-109.44,-7.6,-253.84
335825.2157,364.17,-112.24,952.576,-1566.25,-4978.75,1452.5,-126.16,-4.56,-266.0
335825.2657,378.261,-121.939,950.441,-2091.25,-4322.5,1365.0,-107.92,-16.72,-261.44
335825.3158,370.575,-117.425,951.661,-1470.0,-3893.75,796.25,-109.44,-12.16,-255.36
335825.3657,362.34,-116.693,956.785,-2003.75,-4138.75,927.5,-106.4,-7.6,-249.28
335825.4157,366.427,-122.183,955.443,-1085.0,-3762.5,323.75,-124.64,7.6,-246.24
335825.4657,361.059,-115.778,954.955,-1032.5,-4375.0,297.5,-115.52,-13.68,-256.88
335825.5157,365.39,-113.338,954.101,-2310.0,-4340.0,-323.75,-110.96,1.52,-256.88
335825.5657,360.205,-118.767,954.65,-1618.75,-4086.25,315.0,-94.24,1.52,-259.92
335825.6157,363.316,-116.693,955.321,-1575.0,-4147.5,411.25,-118.56,-13.68,-249.28
335825.6657,359.229,-122.61,959.225,-1181.25,-4270.0,918.75,-106.4,-6.08,-256.88
335825.7157,359.229,-115.656,957.883,-1286.25,-4585.0,1225.0,-112.48,-10.64,-264.48
335825.7658,358.741,-113.887,948.123,-2791.25,-5180.0,743.75,-101.84,3.04,-244.72
335825.8157,377.407,-135.298,952.149,481.25,-2511.25,148.75,-118.56,10.64,-252.32
335825.8657,359.229,-110.959,952.82,-315.0,-2371.25,341.25,-115.52,-4.56,-249.28
335825.9157,351.97,-112.728,960.201,-2161.25,-3237.5,-490.0,-91.2,-16.72,-258.4
335825.9657,353.678,-120.231,960.933,-2415.0,-3683.75,-78.75,-103.36,-18.24,-241.68
335826.0157,349.225,-114.619,959.835,-542.5,-3535.0,761.25,-101.84,-10.64,-258.4
335826.0657,364.475,-119.682,956.419,-2021.25,-4445.0,708.75,-118.56,-12.16,-250.8
335826.1157,358.131,-119.682,958.432,-936.25,-3806.25,1076.25,-117.04,-13.68,-252.32
335826.1657,345.26,-116.998,958.493,-1216.25,-4060.0,1268.75,-118.56,-10.64,-266.0
335826.2158,358.009,-122.183,954.406,-1505.0,-4917.5,288.75,-106.4,4.56,-258.4
335826.2659,358.375,-112.423,959.53,-761.25,-2975.0,-988.75,-85.12,-12.16,-256.88
335826.3157,345.26,-105.286,957.822,-1907.5,-3482.5,-1338.75,-110.96,-12.16,-253.84
335826.3658,352.824,-112.911,957.029,-2135.0,-3325.0,70.0,-100.32,-10.64,-261.44
335826.4157,344.833,-113.399,962.763,-1085.0,-2730.0,1505.0,-115.52,-12.16,-264.48
335826.4658,345.321,-116.571,960.933,-875.0,-3368.75,1636.25,-95.76,-18.24,-252.32
335826.5157,344.955,-112.789,960.018,-1102.5,-3071.25,752.5,-112.48,0.0,-262.96
335826.5657,342.271,-110.471,957.639,-2878.75,-3456.25,96.25,-104.88,-16.72,-258.4
335826.6157,351.726,-130.235,963.495,-1295.0,-3141.25,437.5,-109.44,0.0,-250.8
335826.6657,335.5,-101.931,964.288,-1111.25,-2616.25,297.5,-118.56,-6.08,-264.48
335826.7157,333.243,-109.19,964.166,-2170.0,-3325.0,-218.75,-104.88,-16.72,-261.44
335826.7657,337.269,-117.608,965.508,-2292.5,-3141.25,560.0,-106.4,-6.08,-259.92
335826.8157,325.313,-111.691,964.715,-708.75,-2782.5,1601.25,-106.4,-15.2,-264.48
335826.8657,332.267,-114.863,967.948,-2091.25,-4375.0,2248.75,-115.52,-7.6,-261.44
335826.9158,334.097,-117.852,965.325,-1015.0,-3500.0,1723.75,-112.48,-21.28,-253.84
335826.9657,327.387,-114.131,965.63,-1487.5,-4112.5,1093.75,-112.48,10.64,-262.96
335827.0157,329.034,-120.841,963.922,-1303.75,-4182.5,-35.0,-115.52,-9.12,-249.28
335827.0657,330.071,-112.179,968.436,-700.0,-3430.0,-603.75,-103.36,-3.04,-279.68
335827.1157,319.823,-107.848,965.874,-1793.75,-3823.75,-971.25,-101.84,-21.28,-276.64
335827.1657,322.385,-112.179,970.449,-1776.25,-4375.0,210.0,-104.88,-21.28,-275.12
335827.2157,324.154,-111.691,967.46,-1277.5,-4611.25,1093.75,-97.28,-3.04,-261.44
335827.2657,322.568,-113.399,966.606,-1015.0,-4471.25,805.0,-97.28,-7.6,-270.56
335827.3157,319.823,-107.848,970.388,-1531.25,-5643.75,332.5,-98.8,-19.76,-279.68
335827.3657,335.439,-120.292,963.617,-2878.75,-5188.75,612.5,-95.76,-3.04,-272.08
335827.4157,330.559,-120.902,970.693,805.0,-3762.5,140.0,-95.76,-18.24,-276.64
335827.4657,322.568,-100.955,964.41,-2266.25,-4488.75,17.5,-103.36,-3.04,-262.96
335827.5157,325.74,-110.471,966.667,-2388.75,-4445.0,-402.5,-104.88,-10.64,-276.64
335827.5657,327.57,-117.12,969.534,-1303.75,-3368.75,1400.0,-103.36,-4.56,-282.72
335827.6157,318.237,-108.702,966.362,-2135.0,-4891.25,1662.5,-103.36,1.52,-266.0
335827.6657,328.729,-120.536,967.765,-1653.75,-4698.75,1592.5,-98.8,-21.28,-264.48
335827.7157,324.337,-114.009,970.022,-988.75,-4016.25,1225.0,-101.84,-3.04,-269.04
335827.7657,322.202,-116.876,968.314,-1627.5,-4620.0,-122.5,-101.84,-6.08,-273.6
335827.8157,330.62,-116.998,968.375,-700.0,-3500.0,-288.75,-94.24,-21.28,-279.68
335827.8657,320.86,-106.567,967.155,-1093.75,-3342.5,-297.5,-97.28,-7.6,-273.6
335827.9157,315.492,-104.859,967.277,-1898.75,-3578.75,-525.0,-114.0,3.04,-273.6
335827.9657,318.664,-114.558,971.974,-1373.75,-2782.5,551.25,-95.76,-3.04,-266.0
335828.0157,308.843,-113.826,973.377,-1391.25,-3920.0,1312.5,-107.92,1.52,-278.16
335828.0658,311.649,-111.752,970.205,-927.5,-3701.25,1365.0,-103.36,-13.68,-266.0
335828.1157,315.065,-108.519,969.839,-2205.0,-4226.25,708.75,-100.32,-7.6,-266.0
335828.1657,315.126,-121.146,970.388,-2826.25,-4795.0,726.25,-109.44,-6.08,-269.04
335828.2157,309.819,-105.957,970.449,612.5,-2686.25,-262.5,-88.16,-7.6,-272.08
335828.2657,304.878,-104.859,972.096,-2765.0,-3797.5,-612.5,-98.8,-12.16,-278.16
335828.3157,302.743,-113.46,974.536,-2485.0,-3963.75,516.25,-88.16,-25.84,-273.6
335828.3657,306.403,-118.95,976.976,-516.25,-3876.25,2406.25,-95.76,-12.16,-272.08
335828.4157,298.351,-107.787,973.56,-1750.0,-5267.5,1820.0,-107.92,-9.12,-269.04
335828.4657,306.769,-120.597,972.828,-1190.0,-4935.0,726.25,-95.76,-3.04,-276.64
335828.5157,306.22,-111.691,974.597,-1715.0,-5101.25,148.75,-86.64,-15.2,-278.16
335828.5657,303.475,-117.181,972.401,-2091.25,-6063.75,43.75,-83.6,-6.08,-267.52
335828.6157,313.418,-115.473,970.754,-358.75,-4900.0,-17.5,-109.44,-13.68,-278.16
335828.6657,309.941,-103.7,971.852,-1671.25,-4996.25,-481.25,-88.16,-10.64,-262.96
335828.7157,307.989,-108.519,969.839,-2467.5,-5075.0,-848.75,-104.88,-10.64,-272.08
335828.7657,312.076,-113.643,971.059,-1338.75,-4235.0,857.5,-91.2,-13.68,-259.92
335828.8157,298.717,-110.715,972.95,-1181.25,-4602.5,1706.25,-83.6,-12.16,-262.96
335828.8657,308.782,-110.41,974.414,-1295.0,-5398.75,831.25,-82.08,-9.12,-262.96
335828.9157,312.076,-107.299,967.399,-2380.0,-5293.75,367.5,-104.88,3.04,-278.16
335828.9657,318.786,-123.22,971.852,-2450.0,-5530.0,122.5,-80.56,-6.08,-264.48
335829.0159,309.087,-99.979,972.401,-621.25,-4357.5,-245.0,-98.8,-12.16,-252.32
335829.0657,303.292,-101.321,971.12,-2397.5,-4987.5,113.75,-95.76,-4.56,-264.48
335829.1158,305.366,-116.266,972.035,-2152.5,-5258.75,1452.5,-103.36,-4.56,-269.04
335829.1657,306.403,-115.107,972.279,-735.0,-5442.5,2371.25,-100.32,-12.16,-267.52
335829.2158,308.965,-112.667,970.754,-2353.75,-5810.0,1365.0,-91.2,-10.64,-259.92
335829.2657,315.248,-113.765,970.266,-883.75,-4786.25,306.25,-104.88,-10.64,-284.24
335829.3157,310.612,-116.571,970.266,-2248.75,-6002.5,498.75,-103.36,-7.6,-269.04
335829.3657,322.263,-120.475,967.948,-1592.5,-5521.25,568.75,-103.36,-4.56,-255.36
335829.4157,314.15,-116.449,970.083,-621.25,-4296.25,148.75,-85.12,-13.68,-270.56
335829.4657,309.27,-107.726,968.802,-1400.0,-3893.75,-1146.25,-100.32,-6.08,-285.76
335829.5157,316.956,-111.752,971.791,-2143.75,-4165.0,-708.75,-94.24,-24.32,-264.48
335829.5657,305.854,-113.765,974.658,-1312.5,-3491.25,910.0,-100.32,10.64,-261.44
335829.6157,301.523,-113.033,974.719,-1435.0,-4480.0,1295.0,-89.68,-10.64,-269.04
335829.6657,307.44,-110.044,972.584,-1592.5,-4768.75,1015.0,-83.6,-13.68,-270.56
335829.7157,309.514,-109.556,974.109,-2161.25,-4515.0,358.75,-101.84,-19.76,-266.0
335829.7657,318.054,-128.405,973.987,-1303.75,-4200.0,428.75,-88.16,-6.08,-258.4
335829.8157,300.547,-98.698,975.451,-1391.25,-3491.25,350.0,-92.72,0.0,-275.12
335829.8657,296.948,-106.323,972.95,-2511.25,-4191.25,0.0,-94.24,-10.64,-285.76
335829.9157,299.876,-119.316,976.244,-2222.5,-5381.25,1207.5,-88.16,10.64,-279.68
335829.9657,296.521,-109.434,977.281,-1050.0,-5223.75,1426.25,-101.84,-10.64,-273.6
335830.0157,306.952,-119.133,973.804,-1925.0,-5792.5,1452.5,-89.68,-13.68,-269.04
335830.0657,304.451,-116.327,974.658,-1032.5,-5582.5,1093.75,-91.2,0.0,-284.24
335830.1157,302.133,-114.741,973.865,-1548.75,-5521.25,385.0,-109.44,-19.76,-266.0
335830.1657,312.259,-120.414,968.436,-1653.75,-6370.0,-595.0,-94.24,-4.56,-276.64
335830.2157,313.601,-109.068,971.791,-700.0,-4847.5,-1111.25,-101.84,-7.6,-261.44
335830.2657,309.087,-104.188,969.351,-1645.0,-4060.0,-840.0,-88.16,-12.16,-273.6
335830.3157,309.819,-110.898,974.719,-1986.25,-4698.75,385.0,-95.76,-10.64,-282.72
335830.3657,303.597,-113.643,975.268,-1233.75,-5057.5,1190.0,-109.44,-19.76,-266.0
335830.4157,304.207,-113.765,974.963,-1190.0,-5311.25,805.0,-95.76,-7.6,-269.04
335830.4657,309.819,-111.508,970.876,-2082.5,-6072.5,52.5,-100.32,-4.56,-267.52
335830.5157,312.137,-108.58,969.839,-2371.25,-5188.75,463.75,-92.72,-9.12,-273.6
335830.5657,319.945,-130.662,971.425,-210.0,-5206.25,560.0,-97.28,-4.56,-272.08
335830.6157,309.148,-98.027,968.314,-752.5,-4007.5,-78.75,-95.76,-18.24,-279.68
335830.6657,301.462,-112.118,973.987,-2948.75,-4602.5,-306.25,-92.72,-13.68,-273.6
335830.7157,302.133,-120.109,977.159,-1732.5,-5530.0,1522.5,-104.88,-6.08,-275.12
335830.7657,309.27,-114.07,973.255,-761.25,-5215.0,2240.0,-103.36,-6.08,-269.04
335830.8158,307.196,-121.878,972.767,-1968.75,-5871.25,1513.75,-94.24,-9.12,-281.2
335830.8657,311.161,-115.229,973.682,-1303.75,-5328.75,665.0,-100.32,-13.68,-273.6
335830.9157,307.806,-114.802,974.109,-2091.25,-5897.5,-262.5,-94.24,1.52,-275.12
335830.9657,319.335,-122.0,966.423,-1312.5,-6055.0,-516.25,-89.68,-15.2,-269.04
335831.0157,321.165,-112.362,967.033,-778.75,-4646.25,-227.5,-109.44,-10.64,-261.44
335831.0657,309.697,-104.066,968.497,-2126.25,-4786.25,-280.0,-98.8,1.52,-262.96
335831.1157,313.967,-116.022,972.889,-1776.25,-4873.75,1058.75,-100.32,-6.08,-287.28
335831.1657,310.673,-115.229,970.205,-1373.75,-4401.25,1286.25,-95.76,1.52,-255.36
335831.2157,306.769,-121.207,973.072,-1260.0,-5276.25,726.25,-112.48,-3.04,-264.48
335831.2658,306.586,-114.131,973.133,-1540.0,-5766.25,752.5,-104.88,-13.68,-270.56
335831.3157,312.32,-111.447,971.364,-2240.0,-5530.0,-183.75,-88.16,-7.6,-269.04
335831.3657,320.006,-118.95,972.279,-175.0,-4856.25,-455.0,-104.88,-24.32,-270.56
335831.4157,309.453,-102.785,968.924,-1776.25,-4305.0,-35.0,-92.72,-3.04,-267.52
335831.4657,309.819,-110.288,973.682,-2537.5,-5258.75,411.25,-115.52,7.6,-279.68
335831.5157,313.601,-120.048,972.401,-1435.0,-4917.5,2012.5,-85.12,-13.68,-267.52
335831.5657,302.926,-113.948,974.048,-1286.25,-5958.75,2458.75,-94.24,-7.6,-266.0
335831.6157,322.446,-119.499,967.887,-1321.25,-5477.5,1190.0,-110.96,0.0,-255.36
335831.6659,319.457,-116.266,967.948,-1758.75,-4646.25,603.75,-98.8,-15.2,-259.92
335831.7157,311.161,-123.83,972.218,-1785.0,-5390.0,560.0,-98.8,-9.12,-269.04
335831.7658,315.919,-118.34,970.937,-936.25,-5180.0,-201.25,-92.72,6.08,-262.96
335831.8157,317.993,-111.569,968.802,-1172.5,-4996.25,-577.5,-95.76,-3.04,-269.04
335831.8657,310.185,-109.8,971.73,-1968.75,-4891.25,-630.0,-106.4,-10.64,-261.44
335831.9157,314.394,-112.972,972.401,-1820.0,-4996.25,87.5,-85.12,-15.2,-262.96
335831.9657,313.418,-111.02,972.401,-1487.5,-5092.5,848.75,-88.16,1.52,-262.96
335832.0157,312.93,-111.325,970.449,-1811.25,-4733.75,1067.5,-88.16,-9.12,-262.96
335832.0657,308.355,-114.314,972.523,-2345.0,-5573.75,1286.25,-79.04,0.0,-259.92
335832.1157,314.76,-123.464,969.229,-2563.75,-5836.25,962.5,-85.12,-3.04,-261.44
335832.1657,317.322,-117.547,970.083,-8.75,-4313.75,-472.5,-98.8,10.64,-264.48
335832.2157,306.342,-106.872,972.523,-1855.0,-4803.75,350.0,-101.84,-15.2,-266.0
335832.2657,311.405,-114.131,970.327,-2922.5,-5232.5,752.5,-106.4,-13.68,-267.52
335832.3157,309.88,-120.353,974.414,-2703.75,-5302.5,1741.25,-100.32,-25.84,-262.96
335832.3657,306.708,-120.414,969.046,-1601.25,-5862.5,1627.5,-89.68,0.0,-259.92
335832.4157,320.616,-123.403,971.913,-1793.75,-5451.25,586.25,-86.64,-4.56,-264.48
335832.4657,311.222,-120.292,973.56,-1811.25,-5162.5,848.75,-106.4,-4.56,-278.16
335832.5157,313.662,-123.525,969.534,-2082.5,-6492.5,332.5,-103.36,-10.64,-270.56
335832.5657,321.531,-123.952,965.996,-2038.75,-6921.25,-332.5,-103.36,1.52,-278.16
335832.6157,320.799,-115.595,966.545,-1435.0,-5862.5,-568.75,-94.24,-10.64,-267.52
335832.6657,326.167,-119.316,962.763,-2283.75,-5302.5,-848.75,-107.92,-3.04,-264.48
335832.7157,324.703,-121.634,965.813,-1837.5,-4943.75,280.0,-97.28,-9.12,-250.8
335832.7657,320.677,-120.536,968.558,-1583.75,-4077.5,1067.5,-86.64,3.04,-255.36
335832.8157,315.004,-120.78,968.863,-1741.25,-4733.75,463.75,-112.48,-10.64,-259.92
335832.8658,321.043,-118.828,968.985,-1723.75,-4996.25,358.75,-83.6,-16.72,-275.12
335832.9157,319.213,-121.878,960.323,-3342.5,-5670.0,140.0,-103.36,3.04,-264.48
335832.9657,333.975,-135.664,966.545,-586.25,-3998.75,376.25,-97.28,-10.64,-259.92
335833.0157,313.418,-111.142,966.362,-1767.5,-4033.75,953.75,-120.08,-3.04,-275.12
335833.0657,313.662,-120.658,967.399,-3132.5,-5022.5,831.25,-88.16,-13.68,-267.52
335833.1157,318.786,-131.028,968.802,-2003.75,-4550.0,1417.5,-86.64,-4.56,-264.48
335833.1657,305.427,-122.061,972.157,-1032.5,-4480.0,1548.75,-101.84,-6.08,-250.8
335833.2157,309.575,-121.024,969.29,-2660.0,-5608.75,945.0,-82.08,-10.64,-267.52
335833.2657,310.246,-124.501,974.231,-1995.0,-5355.0,603.75,-91.2,1.52,-276.64
335833.3157,316.102,-128.344,967.765,-2222.5,-6623.75,735.0,-101.84,4.56,-269.04
335833.3657,322.446,-128.588,966.24,-2135.0,-6693.75,297.5,-88.16,3.04,-281.2
335833.4157,327.997,-124.135,961.909,-1960.0,-5416.25,376.25,-104.88,12.16,-267.52
335833.4657,320.799,-125.294,965.569,-2266.25,-5416.25,927.5,-88.16,-15.2,-281.2
335833.5157,326.411,-129.93,965.691,-2301.25,-5416.25,1321.25,-94.24,0.0,-267.52
335833.5658,321.409,-132.919,965.325,-1872.5,-4725.0,1583.75,-80.56,4.56,-261.44
335833.6157,317.383,-134.871,967.765,-1732.5,-5285.0,883.75,-83.6,0.0,-269.04
335833.6657,325.679,-128.1,963.312,-2257.5,-5661.25,175.0,-100.32,-3.04,-267.52
335833.7157,330.742,-137.25,959.652,-3045.0,-5232.5,568.75,-89.68,1.52,-258.4
335833.7657,327.814,-143.716,965.691,210.0,-3648.75,656.25,-107.92,13.68,-264.48
335833.8157,323.422,-117.73,967.216,-1741.25,-3535.0,498.75,-100.32,4.56,-276.64
335833.8657,314.089,-127.978,970.022,-2852.5,-3421.25,236.25,-100.32,4.56,-270.56
335833.9157,314.333,-135.054,970.205,-1277.5,-4506.25,1697.5,-100.32,4.56,-267.52
335833.9657,311.405,-128.466,967.887,-1531.25,-5302.5,1321.25,-74.48,-7.6,-252.32
335834.0158,319.701,-138.226,968.68,-1365.0,-4838.75,621.25,-103.36,1.52,-255.36
335834.0657,313.418,-130.723,967.765,-1137.5,-4926.25,78.75,-104.88,0.0,-264.48
335834.1157,315.37,-129.991,967.826,-1548.75,-4908.75,-218.75,-101.84,7.6,-267.52
335834.1657,322.08,-134.566,968.985,-551.25,-5031.25,-542.5,-107.92,13.68,-264.48
335834.2157,321.287,-116.632,962.397,-595.0,-4331.25,-743.75,-89.68,7.6,-273.6
335834.2657,314.272,-115.778,968.436,-1785.0,-4795.0,-945.0,-112.48,4.56,-262.96
335834.3159,316.651,-128.588,971.181,-1242.5,-4532.5,525.0,-83.6,10.64,-270.56
335834.3657,315.553,-121.817,968.802,-1408.75,-4725.0,875.0,-95.76,-10.64,-259.92
335834.4158,311.527,-127.917,969.778,-1198.75,-4891.25,848.75,-118.56,3.04,-244.72
335834.4657,319.823,-122.366,969.656,-1391.25,-5635.0,586.25,-100.32,3.04,-264.48
335834.5157,317.383,-119.804,961.787,-2555.0,-5381.25,52.5,-97.28,0.0,-273.6
335834.5657,324.215,-133.59,966.606,446.25,-3876.25,-516.25,-97.28,1.52,-258.4
335834.6157,310.124,-114.619,971.242,-2266.25,-4436.25,-411.25,-101.84,-4.56,-258.4
335834.6657,307.379,-124.257,973.743,-2668.75,-5302.5,105.0,-86.64,-7.6,-273.6
335834.7158,315.98,-135.847,972.767,-1120.0,-5976.25,2275.0,-97.28,-12.16,-262.96
335834.7657,309.514,-125.965,967.643,-901.25,-6492.5,1435.0,-98.8,-4.56,-266.0
335834.8157,322.812,-134.566,963.373,-1548.75,-5967.5,-35.0,-95.76,-6.08,-264.48
335834.8657,320.311,-127.917,964.349,-1610.0,-5416.25,-805.0,-107.92,-7.6,-262.96
335834.9157,322.507,-134.871,963.556,-1190.0,-5565.0,-586.25,-97.28,-4.56,-266.0
335834.9657,327.936,-128.344,963.8,210.0,-5311.25,-866.25,-95.76,1.52,-266.0
335835.0157,334.219,-118.706,961.238,-586.25,-4348.75,-1548.75,-98.8,-4.56,-262.96
335835.0657,316.529,-114.924,968.375,-1496.25,-3858.75,-1172.5,-77.52,1.52,-261.44
335835.1157,319.457,-121.451,973.011,-1198.75,-4331.25,621.25,-107.92,-3.04,-262.96
335835.1657,316.773,-118.096,972.584,-787.5,-4733.75,1776.25,-103.36,-13.68,-261.44
335835.2157,317.139,-118.889,967.704,-988.75,-4331.25,1286.25,-91.2,-7.6,-258.4
335835.2657,322.324,-115.29,967.399,-1330.0,-5783.75,945.0,-109.44,-7.6,-281.2
335835.3157,325.618,-119.194,963.861,-3001.25,-5136.25,-70.0,-101.84,-7.6,-252.32
335835.3657,316.651,-118.035,971.608,577.5,-2476.25,-945.0,-85.12,-6.08,-259.92
335835.4157,306.952,-105.53,971.547,-1881.25,-4068.75,210.0,-89.68,-9.12,-273.6
335835.4657,312.259,-118.035,971.364,-2957.5,-4751.25,603.75,-88.16,-7.6,-262.96
335835.5157,308.05,-123.83,972.035,-1128.75,-4751.25,2301.25,-83.6,-22.8,-261.44
335835.5657,309.209,-115.107,970.083,-2607.5,-5845.0,1942.5,-85.12,6.08,-276.64
335835.6158,321.653,-129.869,969.656,-1846.25,-5127.5,1365.0,-85.12,-3.04,-273.6
335835.6657,314.638,-123.281,971.852,-2073.75,-5407.5,1671.25,-98.8,-4.56,-262.96
335835.7157,321.226,-135.054,967.826,-1487.5,-5748.75,1076.25,-97.28,3.04,-262.96
335835.7657,338.733,-121.024,958.493,-1225.0,-4515.0,-1225.0,-74.48,-10.64,-259.92
335835.8157,342.149,-125.111,961.482,-2292.5,-1190.0,-1505.0,-95.76,-7.6,-261.44
335835.8657,339.099,-109.19,958.737,6160.0,857.5,3298.75,-100.32,-9.12,-244.72
335835.9157,318.542,-47.336,961.787,5871.25,-883.75,2441.25,-85.12,-6.08,-261.44
335835.9657,322.446,-24.644,964.349,-6247.5,-2633.75,-630.0,-89.68,-12.16,-269.04
335836.0157,270.413,-103.334,977.708,-11182.5,-1207.5,-1032.5,-91.2,-7.6,-258.4
335836.0657,261.873,-140.483,998.936,-8706.25,-4996.25,-4480.0,-85.12,0.0,-279.68
335836.1157,263.703,-165.127,991.311,-9485.0,-10465.0,-3062.5,-95.76,-15.2,-256.88
335836.1657,272.853,-189.893,999.18,-4978.75,-7367.5,-3631.25,-95.76,1.52,-267.52
335836.2157,248.148,-172.752,980.88,-4488.75,-8750.0,-9520.0,-118.56,-13.68,-252.32
335836.2657,281.637,-148.779,982.527,-3972.5,-13133.75,-10613.75,-92.72,-7.6,-259.92
335836.3157,300.242,-150.548,968.375,-3937.5,-14350.0,-9126.25,-110.96,0.0,-267.52
335836.3657,359.961,-125.111,951.417,-271.25,-15338.75,-857.5,-109.44,-7.6,-256.88
335836.4157,400.404,-132.553,944.951,6046.25,-16957.5,8286.25,-106.4,-24.32,-261.44
335836.4657,427.427,-134.444,929.152,4121.25,-15041.25,12118.75,-124.64,9.12,-255.36
335836.5157,418.765,-101.748,906.033,4935.0,-10421.25,10333.75,-101.84,-7.6,-240.16
335836.5657,412.787,-130.54,929.762,17.5,437.5,3771.25,-110.96,1.52,-259.92
335836.6157,360.937,-117.181,942.328,-4751.25,3438.75,-2546.25,-98.8,-24.32,-256.88
335836.6657,329.461,-135.542,961.482,-5670.0,2161.25,-7787.5,-106.4,-3.04,-269.04
335836.7157,333.914,-139.934,967.948,-8015.0,1522.5,-7280.0,-123.12,-10.64,-266.0
335836.7657,300.608,-157.258,967.46,-5013.75,3220.0,-8146.25,-107.92,-7.6,-258.4
335836.8157,299.571,-141.398,975.39,-4042.5,568.75,-7805.0,-97.28,-13.68,-261.44
335836.8657,315.736,-152.683,974.719,-3106.25,-2275.0,-4217.5,-101.84,-7.6,-258.4
335836.9157,363.865,-165.188,973.926,3377.5,-6282.5,3867.5,-110.96,3.04,-266.0
335836.9659,362.767,-144.204,960.506,8286.25,-3176.25,6571.25,-112.48,7.6,-282.72
335837.0157,308.66,-137.86,964.837,2983.75,-2773.75,10377.5,-83.6,-21.28,-266.0
335837.0658,299.571,-103.273,953.735,4410.0,-2546.25,2310.0,-107.92,-10.64,-253.84
335837.1157,284.138,-109.312,964.044,2458.75,332.5,1575.0,-103.36,3.04,-275.12
335837.1657,291.824,-132.98,983.686,1618.75,-3587.5,4681.25,-85.12,3.04,-282.72
335837.2157,292.678,-114.131,987.468,1487.5,-2835.0,3683.75,-106.4,-13.68,-273.6
335837.2657,289.201,-139.873,997.106,-1916.25,-3640.0,4418.75,-88.16,-7.6,-258.4
335837.3157,270.413,-113.521,989.725,1513.75,-11270.0,2712.5,-97.28,-10.64,-269.04
335837.3657,338.001,-105.408,985.821,8.75,-10351.25,2231.25,-97.28,-4.56,-281.2
335837.4157,278.648,-77.958,966.301,-4287.5,-11952.5,-6317.5,-91.2,-9.12,-276.64
335837.4658,344.772,-105.896,946.964,-6956.25,-12538.75,-1662.5,-114.0,-15.2,-276.64
335837.5157,346.907,-115.168,951.417,1942.5,-12626.25,1373.75,-107.92,-4.56,-266.0
335837.5657,407.907,-120.78,950.502,-4480.0,-5958.75,10333.75,-114.0,-10.64,-269.04
335837.6157,351.299,-131.943,959.652,805.0,2275.0,7918.75,-104.88,-12.16,-273.6
335837.6657,312.93,-78.08,961.909,-4628.75,-10386.25,-3220.0,-98.8,-4.56,-266.0
335837.7157,368.196,-105.408,972.096,-3255.0,-6230.0,-9021.25,-127.68,-9.12,-262.96
335837.7657,340.258,-87.657,957.883,-3342.5,-7656.25,-6273.75,-91.2,-13.68,-259.92
335837.8157,355.264,-105.042,951.234,-131.25,-9511.25,2117.5,-110.96,-7.6,-264.48
335837.8657,366.854,-87.779,925.797,-2800.0,-9178.75,4585.0,-121.6,-10.64,-266.0
335837.9157,376.431,-144.57,944.951,-4130.0,2703.75,7140.0,-89.68,-4.56,-252.32
335837.9657,318.481,-148.23,971.669,-358.75,4856.25,2117.5,-109.44,3.04,-256.88
335838.0157,309.941,-145.973,975.451,-901.25,1916.25,-2730.0,-88.16,15.2,-269.04
335838.0657,313.296,-138.409,982.405,-350.0,-183.75,-6133.75,-110.96,0.0,-287.28
335838.1157,288.591,-109.312,978.074,848.75,-5853.75,-4987.5,-114.0,-10.64,-273.6
335838.1657,326.594,-101.321,964.288,-770.0,-13938.75,-3736.25,-95.76,-4.56,-261.44
335838.2157,358.68,-97.661,955.138,-1898.75,-4007.5,568.75,-97.28,-7.6,-273.6
335838.2657,326.045,-117.364,965.447,-288.75,-2292.5,2817.5,-101.84,4.56,-250.8
335838.3157,315.98,-114.68,968.497,1181.25,-3517.5,2695.0,-95.76,-12.16,-256.88
335838.3657,319.701,-104.859,968.497,1715.0,-7192.5,875.0,-101.84,-19.76,-270.56
335838.4157,324.52,-96.258,974.048,-306.25,-10692.5,420.0,-97.28,-3.04,-261.44
335838.4657,340.014,-95.648,964.654,-1251.25,-4235.0,1330.0,-110.96,4.56,-273.6
335838.5157,345.382,-106.872,970.571,-2773.75,-4427.5,-8.75,-115.52,15.2,-262.96
335838.5657,320.128,-104.981,965.325,-3263.75,-3605.0,-787.5,-104.88,-16.72,-273.6
335838.6157,318.115,-100.65,965.691,-4033.75,-5941.25,-1846.25,-98.8,-10.64,-266.0
335838.6657,336.781,-121.939,963.739,-4707.5,-6658.75,-1198.75,-100.32,0.0,-252.32
335838.7157,336.293,-118.828,963.251,-1312.5,-6475.0,17.5,-98.8,-16.72,-255.36
335838.7657,333.67,-115.229,963.434,-988.75,-3001.25,1365.0,-106.4,-9.12,-252.32
335838.8157,326.655,-110.593,966.179,-201.25,-2703.75,2371.25,-106.4,-12.16,-264.48
335838.8657,355.203,-115.046,967.582,-2213.75,-4252.5,2520.0,-94.24,3.04,-258.4
335838.9157,327.814,-116.571,966.24,-2765.0,-4506.25,393.75,-98.8,-4.56,-272.08
335838.9657,357.643,-105.408,955.931,-3465.0,-3167.5,-3438.75,-97.28,-19.76,-253.84
335839.0157,317.078,-123.098,964.593,-4348.75,-157.5,-2616.25,-97.28,-12.16,-266.0
335839.0657,310.856,-125.111,971.364,-630.0,-5547.5,350.0,-91.2,4.56,-270.56
335839.1157,321.165,-112.972,966.972,1242.5,-3193.75,2581.25,-98.8,-7.6,-259.92
335839.1657,323.239,-107.909,966.24,1916.25,-3368.75,2738.75,-92.72,-18.24,-264.48
335839.2157,324.398,-99.613,969.473,542.5,-2397.5,1513.75,-94.24,0.0,-256.88
335839.2657,330.559,-102.175,973.621,-4305.0,-2143.75,-1592.5,-79.04,-4.56,-279.68
335839.3157,308.904,-104.127,973.255,-4445.0,-2170.0,-3193.75,-92.72,-13.68,-269.04
335839.3657,310.124,-113.033,976.305,-5075.0,-4690.0,-2555.0,-101.84,-12.16,-261.44
335839.4157,308.233,-117.059,970.266,-4340.0,-6571.25,-2642.5,-97.28,-4.56,-266.0
335839.4657,318.725,-126.88,969.839,-2021.25,-5556.25,166.25,-80.56,-13.68,-261.44
335839.5158,312.869,-122.427,968.436,-358.75,-7035.0,2590.0,-112.48,-18.24,-258.4
335839.5657,316.834,-117.242,971.608,140.0,-9266.25,2817.5,-92.72,-10.64,-259.92
335839.6159,338.123,-116.388,960.323,-857.5,-7210.0,1645.0,-114.0,-6.08,-275.12
335839.6657,334.402,-114.436,961.177,-1076.25,-7113.75,-682.5,-95.76,-24.32,-262.96
335839.7158,333.487,-111.996,963.983,-1750.0,-6483.75,-2415.0,-95.76,-12.16,-266.0
335839.7657,335.012,-108.946,964.898,-2782.5,-6291.25,-2231.25,-95.76,-10.64,-266.0
335839.8157,336.476,-113.643,963.983,-1811.25,-6343.75,-770.0,-86.64,-15.2,-255.36
335839.8657,328.851,-114.253,961.97,-1163.75,-5643.75,936.25,-106.4,-6.08,-264.48
335839.9157,330.498,-112.545,965.142,-78.75,-5906.25,1347.5,-82.08,-31.92,-247.76
335839.9657,336.964,-105.469,961.665,-787.5,-6405.0,577.5,-104.88,1.52,-267.52
335840.0157,346.846,-112.545,957.395,-2283.75,-5355.0,586.25,-104.88,-4.56,-266.0
335840.0657,350.262,-116.022,964.044,498.75,-2747.5,35.0,-103.36,-22.8,-256.88
335840.1157,324.52,-102.419,968.985,-1338.75,-3377.5,-393.75,-97.28,1.52,-255.36
335840.1657,331.901,-102.846,966.362,-2362.5,-4296.25,-157.5,-121.6,-15.2,-261.44
335840.2158,338.794,-111.752,961.787,-1811.25,-3395.0,752.5,-103.36,-3.04,-281.2
335840.2657,325.984,-104.371,965.264,-2397.5,-4243.75,2275.0,-100.32,-7.6,-269.04
335840.3157,331.718,-117.547,966.301,-1811.25,-3710.0,2423.75,-86.64,1.52,-281.2
335840.3657,325.008,-116.51,964.776,-1811.25,-3893.75,2266.25,-103.36,-7.6,-267.52
335840.4157,329.339,-119.377,965.325,-1496.25,-5040.0,1102.5,-101.84,-4.56,-270.56
335840.4657,336.415,-117.181,962.824,-1452.5,-4270.0,105.0,-98.8,0.0,-281.2
335840.5157,327.204,-110.105,965.142,-1977.5,-3806.25,-551.25,-106.4,-12.16,-269.04
335840.5657,322.019,-111.264,966.85,-2283.75,-3701.25,210.0,-95.76,3.04,-275.12
335840.6157,321.775,-115.534,967.277,-2292.5,-3858.75,490.0,-103.36,-10.64,-275.12
335840.6658,318.176,-117.608,966.85,-1015.0,-4252.5,962.5,-97.28,-12.16,-275.12
335840.7157,326.228,-111.264,965.691,-1645.0,-3885.0,901.25,-97.28,1.52,-282.72
335840.7657,325.252,-123.037,965.569,-2747.5,-4628.75,1181.25,-94.24,-3.04,-267.52
335840.8157,321.714,-114.436,968.131,577.5,-2493.75,752.5,-88.16,7.6,-278.16
335840.8657,310.429,-104.188,969.839,-1522.5,-3613.75,420.0,-115.52,-7.6,-276.64
335840.9157,320.128,-113.887,967.643,-2721.25,-4305.0,113.75,-107.92,-10.64,-267.52
335840.9657,313.357,-120.048,973.438,-971.25,-3753.75,1260.0,-100.32,6.08,-272.08
335841.0157,311.344,-109.312,964.837,-1470.0,-4812.5,1741.25,-110.96,-15.2,-267.52
335841.0657,321.409,-125.05,972.096,-1137.5,-4060.0,1373.75,-117.04,3.04,-273.6
335841.1157,315.919,-117.364,974.475,-323.75,-3377.5,700.0,-104.88,-10.64,-253.84
335841.1657,313.479,-115.595,970.815,-1855.0,-4996.25,-227.5,-89.68,-6.08,-270.56
335841.2157,324.154,-121.634,967.765,-1058.75,-3823.75,-446.25,-85.12,-13.68,-272.08
335841.2657,315.309,-112.301,969.961,-113.75,-2765.0,122.5,-89.68,4.56,-285.76
335841.3157,306.952,-106.018,969.595,-1995.0,-3920.0,-52.5,-95.76,-10.64,-273.6
335841.3657,313.784,-114.192,972.767,-2082.5,-3561.25,-35.0,-104.88,-25.84,-275.12
335841.4157,300.669,-116.022,976.305,-1058.75,-4068.75,787.5,-103.36,-13.68,-266.0
335841.4657,309.941,-110.227,970.937,-1365.0,-4313.75,647.5,-95.76,0.0,-272.08
335841.5157,315.126,-107.36,968.619,-1627.5,-4270.0,1373.75,-101.84,-19.76,-290.32
335841.5657,316.834,-125.111,973.255,-1032.5,-3972.5,1443.75,-91.2,-3.04,-276.64
335841.6157,306.586,-104.737,971.669,-253.75,-3185.0,8.75,-110.96,-15.2,-270.56
335841.6657,302.865,-110.898,973.438,-2423.75,-3675.0,376.25,-88.16,-15.2,-269.04
335841.7157,296.948,-117.242,977.22,-1907.5,-4357.5,1225.0,-88.16,-24.32,-288.8
335841.7657,300.73,-117.608,975.756,-1426.25,-4786.25,1942.5,-86.64,-16.72,-269.04
335841.8158,306.22,-118.218,971.486,-1513.75,-5731.25,1898.75,-95.76,-9.12,-276.64
335841.8657,307.135,-113.704,974.414,-1373.75,-4803.75,813.75,-95.76,-6.08,-269.04
335841.9157,301.035,-114.192,974.658,-1811.25,-4637.5,96.25,-89.68,-9.12,-279.68
335841.9657,304.085,-120.719,970.205,-1225.0,-5670.0,-201.25,-100.32,-6.08,-275.12
335842.0157,308.599,-113.887,973.438,-726.25,-5495.0,-113.75,-103.36,-3.04,-267.52
335842.0657,304.817,-107.482,972.401,-1828.75,-5433.75,-192.5,-86.64,-10.64,-279.68
335842.1157,307.684,-114.558,972.401,-1855.0,-5530.0,831.25,-110.96,-19.76,-272.08
335842.1657,305.854,-114.68,973.438,-1067.5,-5013.75,1286.25,-88.16,-12.16,-284.24
335842.2157,306.098,-116.388,973.804,-1146.25,-5188.75,901.25,-98.8,-7.6,-273.6
335842.2659,308.355,-109.678,973.499,-1373.75,-5197.5,498.75,-79.04,-10.64,-269.04
335842.3157,306.891,-109.8,965.752,-2458.75,-5057.5,498.75,-89.68,-15.2,-269.04
335842.3658,311.71,-124.318,973.011,0.0,-3981.25,271.25,-95.76,-18.24,-281.2
335842.4157,299.693,-100.833,973.255,-787.5,-4392.5,297.5,-92.72,4.56,-279.68
335842.4657,309.209,-109.129,968.131,-3018.75,-5363.75,253.75,-95.76,-4.56,-275.12
335842.5157,313.418,-120.902,970.693,-1960.0,-4235.0,1942.5,-95.76,-13.68,-261.44
335842.5657,303.109,-116.022,972.645,-988.75,-3788.75,1872.5,-68.4,-9.12,-259.92
335842.6157,309.88,-122.976,971.608,-2108.75,-4777.5,988.75,-86.64,-12.16,-256.88
335842.6657,309.209,-121.207,972.523,-1137.5,-4042.5,1015.0,-95.76,-7.6,-266.0
335842.7157,304.695,-114.863,968.802,-1933.75,-4497.5,665.0,-110.96,-16.72,-262.96
335842.7657,313.662,-123.037,970.51,-1303.75,-4042.5,140.0,-79.04,-4.56,-267.52
335842.8157,308.355,-116.022,969.717,-376.25,-3132.5,-332.5,-88.16,-10.64,-269.04
335842.8657,302.194,-107.116,970.388,-2187.5,-2992.5,-962.5,-97.28,-13.68,-259.92
335842.9157,299.205,-115.046,975.024,-2196.25,-2800.0,8.75,-92.72,-21.28,-273.6
335842.9658,290.482,-115.046,977.098,-875.0,-3246.25,1268.75,-97.28,-18.24,-270.56
335843.0157,292.312,-112.85,977.464,-1207.5,-4217.5,1181.25,-79.04,-13.68,-262.96
335843.0657,293.776,-110.959,974.292,-1872.5,-4996.25,630.0,-100.32,-6.08,-275.12
335843.1157,297.741,-118.035,971.974,-2791.25,-4768.75,638.75,-86.64,-25.84,-270.56
335843.1657,294.264,-120.841,977.098,-96.25,-3710.0,-472.5,-89.68,-6.08,-272.08
335843.2157,283.101,-102.48,977.403,-2056.25,-5285.0,192.5,-107.92,-4.56,-287.28
335843.2657,293.715,-117.73,972.706,-2476.25,-4970.0,647.5,-86.64,-4.56,-273.6
335843.3157,292.678,-121.817,977.342,-2030.0,-4681.25,1295.0,-92.72,10.64,-266.0
335843.3657,286.517,-115.351,975.329,-1373.75,-5328.75,1260.0,-86.64,-15.2,-266.0
335843.4157,293.532,-125.66,974.414,-1435.0,-5162.5,595.0,-86.64,-7.6,-282.72
335843.4657,298.229,-118.523,976.488,-1207.5,-4952.5,1251.25,-89.68,-6.08,-259.92
335843.5157,287.798,-121.634,976.732,-1697.5,-5731.25,901.25,-89.68,4.56,-267.52
335843.5657,299.266,-122.671,975.207,-1338.75,-6142.5,-210.0,-97.28,9.12,-281.2
335843.6157,300.73,-113.155,974.048,-875.0,-5075.0,-866.25,-88.16,-6.08,-272.08
335843.6657,293.227,-111.813,974.17,-2528.75,-5066.25,-796.25,-86.64,-3.04,-278.16
335843.7157,298.839,-118.95,973.255,-1785.0,-5451.25,498.75,-92.72,-15.2,-272.08
335843.7657,293.959,-118.34,975.512,-1277.5,-4917.5,1163.75,-100.32,-3.04,-284.24
335843.8157,291.824,-117.425,979.233,-1452.5,-5600.0,70.0,-92.72,16.72,-278.16
335843.8657,295.423,-115.046,978.806,-1645.0,-6107.5,-551.25,-114.0,-6.08,-266.0
335843.9157,301.828,-120.719,975.39,-2616.25,-7026.25,315.0,-88.16,-4.56,-269.04
335843.9657,297.619,-121.085,976.183,-192.5,-6361.25,848.75,-89.68,6.08,-272.08
335844.0157,296.094,-109.129,974.17,-2213.75,-8391.25,980.0,-89.68,-9.12,-285.76
335844.0657,297.863,-122.366,973.438,-2905.0,-8933.75,997.5,-98.8,3.04,-279.68
335844.1157,308.294,-127.124,973.255,-1688.75,-8863.75,1767.5,-110.96,-24.32,-272.08
335844.1657,308.965,-120.17,967.887,-1933.75,-9782.5,1636.25,-106.4,-9.12,-272.08
335844.2157,306.464,-130.906,975.756,-2695.0,-10062.5,953.75,-95.76,7.6,-264.48
335844.2657,319.64,-132.614,965.752,-901.25,-9808.75,341.25,-110.96,1.52,-285.76
335844.3157,324.093,-127.429,970.327,-2362.5,-10692.5,-297.5,-100.32,3.04,-256.88
335844.3657,334.463,-122.854,959.164,-1198.75,-9423.75,-1006.25,-117.04,0.0,-262.96
335844.4157,342.881,-124.745,960.628,-1032.5,-6422.5,-70.0,-94.24,-4.56,-258.4
335844.4657,324.215,-119.926,961.177,-1531.25,-8041.25,857.5,-83.6,7.6,-262.96
335844.5157,341.722,-116.693,960.933,-1120.0,-5652.5,630.0,-107.92,3.04,-262.96
335844.5658,328.851,-129.259,969.473,-918.75,-7542.5,315.0,-97.28,-6.08,-267.52
335844.6157,332.511,-116.937,967.277,-542.5,-7743.75,1041.25,-114.0,18.24,-264.48
335844.6657,332.389,-119.987,959.774,-2266.25,-10395.0,183.75,-97.28,-15.2,-267.52
335844.7157,374.418,-134.078,960.689,-227.5,-9152.5,-43.75,-104.88,-15.2,-258.4
335844.7657,351.238,-113.765,951.539,-385.0,-5608.75,-411.25,-109.44,1.52,-258.4
335844.8157,350.201,-114.009,955.504,-2336.25,-8828.75,-8.75,-104.88,1.52,-267.52
335844.8657,360.327,-123.098,955.443,-1575.0,-8067.5,761.25,-103.36,-18.24,-255.36
335844.9159,373.747,-113.887,945.683,787.5,-4812.5,708.75,-107.92,-10.64,-272.08
335844.9657,339.282,-125.355,960.384,-1260.0,-6133.75,962.5,-91.2,7.6,-256.88
335845.0158,371.673,-121.024,952.332,-1452.5,-6623.75,761.25,-101.84,-16.72,-250.8
335845.0657,356.301,-114.558,954.711,-1172.5,-5503.75,-122.5,-94.24,6.08,-249.28
335845.1157,368.684,-123.281,952.82,-402.5,-3710.0,-26.25,-120.08,-15.2,-244.72
335845.1657,351.787,-102.053,955.748,-743.75,-6667.5,332.5,-118.56,-6.08,-250.8
335845.2157,360.327,-107.299,953.43,-1977.5,-5958.75,210.0,-114.0,-4.56,-266.0
335845.2657,367.769,-111.203,949.648,-2082.5,-4838.75,-297.5,-103.36,-10.64,-246.24
335845.3157,361.242,-117.059,951.844,-1216.25,-2441.25,70.0,-107.92,-9.12,-259.92
335845.3657,342.759,-105.835,961.604,-1627.5,-3500.0,358.75,-115.52,0.0,-255.36
335845.4157,353.739,-109.434,960.811,-2327.5,-5565.0,997.5,-94.24,-4.56,-261.44
335845.4657,345.382,-130.113,956.846,-1942.5,-4165.0,1977.5,-121.6,-21.28,-255.36
335845.5157,358.619,-121.512,960.567,813.75,-4768.75,236.25,-101.84,-21.28,-253.84
335845.5657,343.247,-118.584,960.445,-2730.0,-3666.25,-297.5,-106.4,-10.64,-255.36
335845.6157,353.129,-113.948,957.944,-2301.25,-5311.25,-936.25,-98.8,-6.08,-266.0
335845.6657,359.229,-119.316,961.055,-2668.75,-4077.5,446.25,-110.96,4.56,-255.36
335845.7157,346.785,-116.51,958.31,-3001.25,-5013.75,1207.5,-104.88,-13.68,-262.96
335845.7657,357.582,-129.625,958.676,-1487.5,-3710.0,1146.25,-106.4,-19.76,-262.96
335845.8157,344.589,-116.144,957.578,-1662.5,-3718.75,1137.5,-115.52,0.0,-250.8
335845.8657,353.678,-126.392,956.724,-2397.5,-4620.0,542.5,-97.28,-25.84,-252.32
335845.9157,356.789,-130.54,951.6,-1006.25,-4681.25,612.5,-109.44,-10.64,-258.4
335845.9657,361.181,-117.73,952.027,-805.0,-2800.0,288.75,-112.48,-7.6,-269.04
335846.0157,353.068,-115.717,953.308,-1750.0,-2598.75,-175.0,-110.96,7.6,-250.8
335846.0657,352.519,-121.085,956.358,-1198.75,-910.0,542.5,-121.6,9.12,-255.36
335846.1157,332.145,-116.327,972.889,-2266.25,-1286.25,665.0,-100.32,-7.6,-262.96
335846.1658,314.638,-122.244,968.253,-1688.75,-3666.25,1461.25,-101.84,-7.6,-269.04
335846.2157,340.807,-119.865,954.833,-1356.25,-5433.75,1548.75,-86.64,-12.16,-270.56
335846.2657,349.713,-134.993,963.556,-2143.75,-3666.25,927.5,-103.36,-12.16,-264.48
335846.3157,334.402,-127.002,964.227,612.5,-2196.25,-297.5,-101.84,-7.6,-266.0
335846.3657,313.54,-112.118,970.571,-796.25,-3526.25,-323.75,-101.84,1.52,-266.0
335846.4157,314.455,-115.351,969.229,-2152.5,-5871.25,-131.25,-104.88,-16.72,-256.88
335846.4657,336.537,-122.0,964.288,-761.25,-5556.25,516.25,-107.92,-4.56,-266.0
335846.5157,332.389,-110.41,962.458,-2170.0,-5740.0,-157.5,-97.28,-4.56,-269.04
335846.5657,335.988,-120.78,966.85,-2038.75,-5057.5,-437.5,-98.8,-18.24,-270.56
335846.6157,322.873,-114.314,965.508,-1251.25,-5565.0,752.5,-112.48,-9.12,-261.44
335846.6657,338.367,-115.839,965.813,-2371.25,-6553.75,953.75,-115.52,-4.56,-253.84
335846.7157,338.062,-127.673,958.554,-358.75,-6405.0,630.0,-104.88,-10.64,-253.84
335846.7657,346.236,-107.055,960.75,-35.0,-5932.5,665.0,-110.96,-21.28,-270.56
335846.8157,343.186,-103.883,959.469,-1452.5,-5110.0,367.5,-107.92,-10.64,-267.52
335846.8657,344.528,-115.29,962.458,-2301.25,-5617.5,341.25,-97.28,-7.6,-258.4
335846.9157,334.646,-116.51,961.665,-2240.0,-5215.0,717.5,-106.4,4.56,-252.32
335846.9657,340.563,-120.78,959.103,-1846.25,-5486.25,577.5,-120.08,-9.12,-269.04
335847.0157,353.007,-113.277,953.491,-2126.25,-5013.75,446.25,-112.48,0.0,-267.52
335847.0657,351.726,-122.183,962.214,-2633.75,-4462.5,743.75,-107.92,-6.08,-270.56
335847.1157,334.28,-114.802,958.554,-1732.5,-4226.25,945.0,-103.36,6.08,-259.92
335847.1657,340.197,-120.17,960.811,-2677.5,-4410.0,997.5,-114.0,-6.08,-258.4
335847.2157,341.6,-130.784,960.567,-1846.25,-4392.5,857.5,-95.76,-9.12,-269.04
335847.2657,330.803,-120.048,965.569,402.5,-3622.5,1750.0,-95.76,-19.76,-258.4
335847.3157,334.585,-106.933,959.042,-2257.5,-5258.75,1785.0,-94.24,-4.56,-266.0
335847.3657,337.391,-125.05,963.129,-2861.25,-4392.5,192.5,-114.0,-6.08,-262.96
335847.4157,330.132,-129.93,964.898,-1942.5,-3788.75,1111.25,-117.04,-4.56,-261.44
335847.4657,322.995,-128.1,966.789,-1111.25,-5022.5,113.75,-92.72,1.52,-262.96
335847.5157,342.393,-120.719,961.36,-1750.0,-5188.75,-568.75,-106.4,-4.56,-261.44
335847.5659,336.903,-118.889,961.238,-2441.25,-4480.0,-1216.25,-118.56,9.12,-252.32
335847.6157,343.918,-119.621,957.578,-2782.5,-4243.75,-148.75,-92.72,1.52,-272.08
335847.6658,332.999,-125.904,966.362,-1741.25,-3298.75,761.25,-106.4,-3.04,-261.44
335847.7157,322.69,-125.904,964.471,-1452.5,-4261.25,770.0,-97.28,1.52,-266.0
335847.7658,340.624,-122.061,961.36,-1890.0,-4943.75,927.5,-100.32,-3.04,-255.36
335847.8157,338.001,-130.967,959.347,-2966.25,-5013.75,936.25,-104.88,7.6,-270.56
335847.8657,337.818,-137.555,968.131,245.0,-4025.0,988.75,-109.44,1.52,-272.08
335847.9157,324.642,-117.791,961.909,-1373.75,-4488.75,866.25,-97.28,-7.6,-267.52
335847.9657,327.448,-120.719,963.617,-1968.75,-5040.0,-166.25,-98.8,3.04,-266.0
335848.0157,330.559,-129.259,970.51,-1881.25,-5153.75,481.25,-97.28,0.0,-278.16
335848.0657,327.997,-124.623,963.495,-2257.5,-5381.25,901.25,-103.36,-12.16,-261.44
335848.1157,339.282,-132.126,962.092,-1505.0,-5915.0,1207.5,-98.8,12.16,-275.12
335848.1657,329.278,-126.392,962.58,-813.75,-4401.25,1023.75,-103.36,-16.72,-256.88
335848.2157,329.339,-130.296,966.179,-1426.25,-5320.0,148.75,-92.72,-7.6,-258.4
335848.2657,340.502,-128.954,960.323,-918.75,-5748.75,-848.75,-88.16,3.04,-252.32
335848.3157,332.999,-116.815,961.421,-542.5,-3675.0,-1478.75,-107.92,-9.12,-247.76
335848.3657,332.206,-115.778,959.591,-1951.25,-4970.0,-883.75,-104.88,-6.08,-256.88
335848.4157,332.694,-122.305,966.057,-1102.5,-4523.75,-61.25,-107.92,1.52,-258.4
335848.4657,330.742,-123.037,963.251,-691.25,-4733.75,393.75,-107.92,-13.68,-255.36
335848.5157,326.533,-120.841,965.02,-883.75,-5153.75,297.5,-114.0,0.0,-255.36
335848.5657,333.914,-121.085,961.909,-1251.25,-5241.25,-183.75,-94.24,1.52,-261.44
335848.6157,345.809,-128.588,965.203,-980.0,-5398.75,-577.5,-104.88,3.04,-259.92
335848.6657,329.827,-105.286,964.959,-183.75,-3491.25,-735.0,-120.08,1.52,-267.52
335848.7157,336.903,-109.19,962.763,-1890.0,-5215.0,-525.0,-104.88,0.0,-262.96
335848.7657,338.428,-117.608,961.909,-1872.5,-4471.25,358.75,-114.0,0.0,-264.48
335848.8157,331.352,-114.192,961.36,-376.25,-4165.0,1303.75,-109.44,-13.68,-256.88
335848.8657,336.11,-110.227,961.726,-2345.0,-5486.25,1242.5,-110.96,9.12,-266.0
335848.9158,335.378,-120.231,968.924,-1102.5,-3823.75,1286.25,-95.76,-21.28,-270.56
335848.9657,326.289,-108.946,965.081,-1400.0,-5836.25,1373.75,-100.32,-3.04,-253.84
335849.0157,342.271,-115.229,956.48,-2388.75,-6221.25,1286.25,-101.84,1.52,-282.72
335849.0657,346.053,-117.12,960.384,997.5,-3158.75,1006.25,-101.84,-6.08,-272.08
335849.1157,323.605,-96.685,964.471,-2213.75,-2931.25,-577.5,-85.12,0.0,-264.48
335849.1657,325.191,-106.445,970.815,-3010.0,-3360.0,-700.0,-107.92,-13.68,-278.16
335849.2157,321.165,-116.571,968.863,-2327.5,-3955.0,1408.75,-101.84,-16.72,-258.4
335849.2657,318.542,-116.815,967.46,-1925.0,-4637.5,1785.0,-107.92,0.0,-252.32
335849.3157,327.509,-114.985,964.41,-3333.75,-4856.25,1085.0,-107.92,6.08,-270.56
335849.3657,328.851,-126.209,961.665,-3342.5,-5591.25,1172.5,-97.28,7.6,-253.84
335849.4157,345.504,-136.213,963.556,-1128.75,-3360.0,-96.25,-94.24,15.2,-270.56
335849.4657,316.529,-117.12,965.813,-1303.75,-411.25,-1890.0,-95.76,0.0,-261.44
335849.5157,301.889,-104.676,975.207,-2861.25,-3438.75,-813.75,-98.8,4.56,-275.12
335849.5657,311.771,-117.974,975.695,-3683.75,-5328.75,3255.0,-98.8,-9.12,-270.56
335849.6157,317.871,-126.819,965.874,-2240.0,-6221.25,4392.5,-92.72,4.56,-256.88
335849.6657,330.864,-135.786,964.166,-3255.0,-6641.25,2913.75,-100.32,-4.56,-272.08
335849.7157,328.058,-136.03,966.789,-2038.75,-4418.75,603.75,-107.92,0.0,-273.6
335849.7657,321.287,-130.601,963.007,-2808.75,-6763.75,1172.5,-100.32,13.68,-264.48
335849.8157,335.5,-134.139,961.36,-1898.75,-5775.0,2135.0,-106.4,-3.04,-269.04
335849.8657,331.474,-132.614,959.225,-1697.5,-3815.0,2003.75,-88.16,-4.56,-259.92
335849.9157,315.065,-130.906,963.861,-2467.5,-4121.25,778.75,-88.16,1.52,-262.96
335849.9657,324.825,-141.276,967.765,-2546.25,-4550.0,-288.75,-101.84,-7.6,-276.64
335850.0157,316.529,-144.204,965.813,-1583.75,-5600.0,-551.25,-85.12,1.52,-266.0
335850.0657,329.156,-139.385,952.576,-1435.0,-5617.5,-665.0,-85.12,-19.76,-269.04
335850.1157,338.733,-144.692,959.957,-1076.25,-3167.5,-2135.0,-92.72,13.68,-253.84
335850.1657,311.71,-144.509,972.889,-1015.0,-3062.5,-2940.0,-112.48,15.2,-270.56
335850.2157,303.231,-128.954,980.819,2108.75,-5118.75,-3193.75,-88.16,-15.2,-276.64
335850.2657,311.649,-113.033,967.155,-218.75,-6685.0,-2502.5,-88.16,4.56,-261.44
335850.3159,324.764,-115.839,960.506,-813.75,-6807.5,-665.0,-101.84,0.0,-269.04
335850.3657,324.642,-122.61,970.327,61.25,-6160.0,2170.0,-104.88,13.68,-266.0
335850.4158,317.383,-116.388,965.203,253.75,-6518.75,2712.5,-106.4,-4.56,-250.8
335850.4657,338.123,-123.037,964.349,-577.5,-7140.0,1758.75,-85.12,6.08,-261.44
335850.5157,335.988,-116.083,960.14,-1758.75,-6720.0,-332.5,-101.84,-10.64,-267.52
335850.5657,344.406,-115.046,960.323,-1715.0,-6466.25,-1863.75,-118.56,0.0,-261.44
335850.6157,340.38,-116.388,961.604,-2178.75,-5232.5,-2196.25,-107.92,19.76,-267.52
335850.6657,342.82,-112.728,956.907,-1373.75,-3657.5,-1548.75,-121.6,12.16,-264.48
335850.7157,335.439,-118.218,958.066,-1715.0,-2380.0,-682.5,-101.84,-3.04,-273.6
335850.7657,327.082,-125.843,963.251,-997.5,-2310.0,-971.25,-85.12,-7.6,-281.2
335850.8157,316.59,-116.327,974.658,78.75,-2712.5,-831.25,-94.24,-12.16,-249.28
335850.8657,312.137,-107.299,970.388,-1190.0,-5040.0,-595.0,-106.4,0.0,-269.04
335850.9157,325.679,-110.654,962.58,-2563.75,-5810.0,-953.75,-98.8,-15.2,-269.04
335850.9657,345.931,-118.157,963.19,-2598.75,-5136.25,-192.5,-92.72,-24.32,-270.56
335851.0157,321.897,-104.493,965.752,-1820.0,-3631.25,122.5,-112.48,0.0,-278.16
335851.0657,317.871,-107.238,967.887,-3386.25,-4733.75,717.5,-94.24,1.52,-250.8
335851.1157,321.775,-125.233,968.863,-2633.75,-4873.75,2213.75,-82.08,-4.56,-253.84
335851.1657,316.285,-118.157,965.691,-918.75,-5066.25,2476.25,-98.8,-3.04,-264.48
335851.2157,325.313,-124.013,968.192,-2318.75,-5880.0,2117.5,-101.84,-19.76,-262.96
335851.2657,328.668,-124.501,963.556,-988.75,-4672.5,770.0,-97.28,-16.72,-272.08
335851.3157,319.945,-117.303,967.033,-2021.25,-5477.5,280.0,-92.72,-4.56,-255.36
335851.3657,337.208,-119.743,965.813,-2231.25,-4375.0,-595.0,-106.4,-18.24,-275.12
335851.4157,318.603,-115.961,968.741,-1846.25,-4768.75,-70.0,-94.24,-12.16,-266.0
335851.4657,319.579,-110.227,966.118,-1872.5,-5276.25,988.75,-94.24,6.08,-264.48
335851.5157,324.459,-123.83,966.24,-2187.5,-5678.75,1408.75,-103.36,-10.64,-276.64
335851.5657,326.045,-119.56,961.726,-2275.0,-4917.5,1636.25,-104.88,-13.68,-261.44
335851.6157,329.522,-128.344,960.75,-2371.25,-4410.0,1356.25,-101.84,-7.6,-272.08
335851.6658,329.583,-126.636,967.033,-1750.0,-4480.0,892.5,-103.36,-4.56,-264.48
335851.7157,326.655,-128.527,962.519,-2791.25,-4725.0,586.25,-94.24,12.16,-269.04
335851.7657,319.762,-126.453,969.168,-201.25,-3692.5,-61.25,-103.36,15.2,-269.04
335851.8157,319.823,-112.972,966.972,-2178.75,-5591.25,402.5,-95.76,-7.6,-267.52
335851.8657,321.592,-123.098,964.227,-3001.25,-5495.0,17.5,-94.24,6.08,-272.08
335851.9157,325.252,-128.466,963.922,-1592.5,-5232.5,1531.25,-101.84,-9.12,-267.52
335851.9657,330.925,-130.113,963.129,-2205.0,-5845.0,1776.25,-112.48,1.52,-264.48
335852.0157,330.132,-129.686,963.251,-980.0,-4707.5,1583.75,-104.88,-7.6,-246.24
335852.0657,319.152,-126.758,966.118,-1365.0,-5442.5,1006.25,-95.76,-7.6,-266.0
335852.1157,325.252,-129.076,963.373,-1785.0,-6116.25,-245.0,-82.08,-9.12,-258.4
335852.1657,330.376,-123.708,962.641,-455.0,-5372.5,-647.5,-110.96,0.0,-252.32
335852.2157,327.875,-116.449,961.055,-1715.0,-5328.75,-831.25,-106.4,-4.56,-252.32
335852.2657,332.328,-123.098,964.349,-2038.75,-4952.5,201.25,-112.48,3.04,-249.28
335852.3157,321.287,-121.024,966.667,-822.5,-4515.0,87.5,-97.28,-4.56,-267.52
335852.3657,321.836,-118.523,969.839,-1977.5,-4550.0,-376.25,-107.92,1.52,-270.56
335852.4157,317.566,-122.793,965.813,-1321.25,-5565.0,840.0,-101.84,-15.2,-259.92
335852.4657,327.875,-122.427,963.434,-2546.25,-5451.25,752.5,-97.28,9.12,-262.96
335852.5157,335.744,-132.553,969.778,-927.5,-4768.75,735.0,-101.84,10.64,-256.88
335852.5657,316.346,-114.436,965.874,-1330.0,-5022.5,1181.25,-115.52,-3.04,-272.08
335852.6157,323.361,-118.218,963.8,-2651.25,-5713.75,122.5,-92.72,3.04,-262.96
335852.6657,328.241,-131.577,967.033,-1540.0,-4891.25,621.25,-103.36,4.56,-259.92
335852.7157,319.396,-116.449,962.702,-1435.0,-5145.0,1093.75,-103.36,-6.08,-281.2
335852.7657,333.853,-129.991,966.911,-2738.75,-5608.75,945.0,-94.24,19.76,-266.0
335852.8158,325.74,-126.941,964.776,-962.5,-4366.25,901.25,-114.0,-6.08,-272.08
335852.8657,317.078,-121.268,963.8,-2380.0,-6256.25,245.0,-89.68,0.0,-266.0
335852.9157,340.502,-128.405,960.75,-2327.5,-5661.25,-376.25,-95.76,-6.08,-264.48
335852.9659,328.851,-123.464,964.898,-831.25,-3753.75,-166.25,-98.8,4.56,-261.44
335853.0157,328.485,-119.194,962.336,-1715.0,-4007.5,-113.75,-95.76,-9.12,-264.48
335853.0658,325.557,-126.209,968.192,-1898.75,-3876.25,175.0,-98.8,-15.2,-258.4
335853.1157,321.043,-126.575,968.619,-1653.75,-4427.5,490.0,-101.84,-13.68,-261.44
335853.1657,320.128,-124.013,965.02,-1443.75,-4445.0,717.5,-101.84,-10.64,-261.44
335853.2157,325.984,-121.695,965.63,-1986.25,-5363.75,770.0,-97.28,-9.12,-258.4
335853.2658,326.045,-127.49,962.702,-2756.25,-5267.5,813.75,-98.8,-4.56,-264.48
335853.3157,322.141,-128.649,965.569,551.25,-3727.5,-122.5,-85.12,-7.6,-267.52
335853.3657,321.409,-118.096,963.251,-2415.0,-4340.0,-201.25,-98.8,6.08,-255.36
335853.4157,319.518,-126.514,965.752,-2283.75,-4401.25,350.0,-104.88,-18.24,-255.36
335853.4657,319.152,-129.503,970.815,-988.75,-4663.75,1741.25,-92.72,-4.56,-267.52
335853.5157,317.139,-120.292,967.338,-2773.75,-5363.75,1365.0,-94.24,9.12,-269.04
335853.5657,325.923,-135.847,966.362,-1732.5,-5311.25,568.75,-100.32,-4.56,-258.4
335853.6157,318.115,-120.902,968.375,-1067.5,-4445.0,586.25,-86.64,-12.16,-253.84
335853.6657,318.42,-123.891,964.41,-2135.0,-5626.25,306.25,-95.76,-19.76,-262.96
335853.7157,327.326,-132.736,968.619,-918.75,-4987.5,542.5,-86.64,-10.64,-270.56
335853.7657,324.52,-117.73,966.362,-1041.25,-4480.0,201.25,-106.4,-4.56,-270.56
335853.8157,322.202,-117.913,965.996,-2380.0,-4348.75,-778.75,-94.24,-3.04,-255.36
335853.8657,323.422,-130.113,968.741,-1610.0,-3788.75,358.75,-103.36,-4.56,-266.0
335853.9157,313.418,-127.551,966.118,-1137.5,-4077.5,1557.5,-100.32,-3.04,-266.0
335853.9658,314.211,-121.695,965.691,-1443.75,-4943.75,1058.75,-85.12,1.52,-266.0
335854.0157,322.568,-124.928,966.362,-2493.75,-5267.5,971.25,-109.44,-18.24,-253.84
335854.0657,326.35,-137.677,967.704,-1925.0,-4830.0,708.75,-83.6,-13.68,-261.44
335854.1157,316.102,-118.645,964.227,-595.0,-3631.25,-52.5,-88.16,-6.08,-266.0
335854.1657,312.869,-126.514,970.754,-2196.25,-4620.0,-306.25,-94.24,-24.32,-269.04
335854.2157,318.481,-131.76,968.619,-1872.5,-5127.5,848.75,-95.76,-12.16,-264.48
335854.2657,314.943,-125.05,963.983,-420.0,-4016.25,726.25,-106.4,0.0,-266.0
335854.3157,318.481,-122.915,965.691,-2240.0,-4760.0,218.75,-91.2,-3.04,-267.52
335854.3657,321.531,-129.625,973.438,-323.75,-3237.5,218.75,-86.64,6.08,-252.32
335854.4157,299.571,-120.841,976.244,-1303.75,-4331.25,140.0,-86.64,-15.2,-279.68
335854.4657,307.074,-127.429,970.083,-1548.75,-5827.5,96.25,-95.76,10.64,-264.48
335854.5157,318.359,-122.183,970.998,-175.0,-4882.5,-210.0,-97.28,4.56,-266.0
335854.5657,313.113,-111.508,964.166,-1321.25,-4733.75,-1155.0,-104.88,3.04,-264.48
335854.6157,313.418,-122.427,968.68,-2187.5,-4278.75,-210.0,-88.16,4.56,-278.16
335854.6657,312.198,-117.364,969.778,-936.25,-4165.0,1330.0,-124.64,16.72,-278.16
335854.7157,303.292,-118.95,975.878,-1575.0,-4690.0,1172.5,-103.36,4.56,-250.8
335854.7657,312.564,-118.401,970.022,-1960.0,-6326.25,577.5,-77.52,7.6,-267.52
335854.8157,323.117,-122.61,961.848,-2292.5,-5740.0,385.0,-104.88,-13.68,-272.08
335854.8657,328.79,-132.675,967.582,-402.5,-4016.25,280.0,-106.4,7.6,-282.72
335854.9157,311.039,-110.166,967.643,-2345.0,-3911.25,35.0,-85.12,1.52,-266.0
335854.9657,313.357,-121.573,969.717,-3141.25,-4296.25,201.25,-114.0,3.04,-273.6
335855.0157,307.135,-129.625,973.56,-1540.0,-4488.75,2196.25,-95.76,-3.04,-256.88
335855.0657,304.573,-117.852,966.606,-2178.75,-5460.0,1723.75,-88.16,-7.6,-284.24
335855.1157,314.882,-133.834,967.155,-2528.75,-5538.75,1181.25,-89.68,19.76,-261.44
335855.1657,310.246,-125.965,971.364,-1277.5,-4532.5,1295.0,-83.6,10.64,-270.56
335855.2157,303.414,-128.283,968.558,-2222.5,-5057.5,455.0,-88.16,-7.6,-273.6
335855.2657,320.006,-134.871,966.484,-1365.0,-5285.0,96.25,-95.76,-3.04,-262.96
335855.3157,312.503,-122.488,969.351,-1347.5,-4506.25,-612.5,-88.16,-9.12,-270.56
335855.3657,309.514,-119.865,970.083,-2415.0,-4698.75,-560.0,-88.16,-6.08,-264.48
335855.4157,315.675,-128.405,966.85,-1653.75,-5171.25,1295.0,-85.12,10.64,-255.36
335855.4657,310.612,-127.856,970.022,-1461.25,-4243.75,1802.5,-88.16,21.28,-269.04
335855.5157,306.037,-125.05,968.741,-1592.5,-5215.0,901.25,-97.28,-4.56,-256.88
335855.5657,314.089,-124.379,969.107,-2222.5,-5486.25,122.5,-82.08,1.52,-275.12
335855.6157,313.357,-132.614,965.081,-2922.5,-5503.75,796.25,-89.68,-4.56,-267.52
335855.6657,307.806,-124.379,971.73,245.0,-4760.0,-87.5,-97.28,-9.12,-266.0
335855.7159,313.967,-119.865,969.046,-3150.0,-5363.75,-516.25,-89.68,1.52,-267.52
335855.7657,311.893,-130.967,968.375,-2502.5,-5162.5,105.0,-114.0,1.52,-275.12
335855.8158,317.322,-131.272,968.436,-603.75,-4558.75,1933.75,-106.4,6.08,-253.84
335855.8657,309.209,-123.952,966.301,-1610.0,-5232.5,1995.0,-106.4,3.04,-261.44
335855.9157,315.553,-138.409,966.301,-778.75,-4812.5,840.0,-100.32,3.04,-262.96
335855.9657,314.333,-130.662,967.948,-1233.75,-4602.5,350.0,-94.24,0.0,-269.04
335856.0157,310.978,-132.187,971.059,-1470.0,-4698.75,-1006.25,-77.52,3.04,-261.44
335856.0657,315.248,-131.028,972.34,-481.25,-5145.0,-1251.25,-89.68,9.12,-256.88
335856.1157,312.93,-121.451,964.837,-770.0,-4768.75,-1093.75,-92.72,-7.6,-269.04
335856.1657,313.479,-121.878,967.765,-1767.5,-4908.75,-52.5,-110.96,4.56,-259.92
335856.2157,315.37,-124.989,967.948,-752.5,-4278.75,1137.5,-85.12,-4.56,-270.56
335856.2657,305.793,-124.379,973.011,-1452.5,-4436.25,673.75,-101.84,9.12,-266.0
335856.3157,309.88,-126.087,968.314,-1102.5,-5013.75,568.75,-94.24,-15.2,-262.96
335856.3657,315.553,-119.56,963.434,-2030.0,-4821.25,-481.25,-89.68,-3.04,-272.08
335856.4157,325.435,-134.2,968.009,-1233.75,-4935.0,-43.75,-95.76,-4.56,-258.4
335856.4657,304.634,-110.41,967.216,-962.5,-3517.5,70.0,-82.08,3.04,-267.52
335856.5157,306.891,-116.144,970.083,-2170.0,-4532.5,-341.25,-100.32,1.52,-266.0
335856.5657,309.148,-125.721,971.12,-1837.5,-4497.5,787.5,-94.24,-10.64,-269.04
335856.6157,303.902,-118.706,969.656,-1225.0,-4383.75,1627.5,-103.36,19.76,-269.04
335856.6657,310.002,-129.442,971.12,-2073.75,-5363.75,2135.0,-101.84,-6.08,-278.16
335856.7157,313.662,-125.66,969.107,-1225.0,-4401.25,1373.75,-98.8,4.56,-267.52
335856.7657,301.34,-126.27,970.327,-1680.0,-4497.5,463.75,-89.68,3.04,-273.6
335856.8157,310.49,-133.224,970.083,-1443.75,-5486.25,-87.5,-112.48,-4.56,-272.08
335856.8657,311.283,-120.597,965.691,-603.75,-4427.5,-621.25,-98.8,10.64,-266.0
335856.9157,306.647,-118.035,970.266,-1575.0,-4488.75,-936.25,-88.16,-12.16,-275.12
335856.9657,306.891,-123.098,971.608,-1531.25,-4707.5,-420.0,-88.16,3.04,-270.56
335857.0157,309.636,-121.146,971.364,-1172.5,-4392.5,-78.75,-83.6,1.52,-262.96
335857.0657,306.342,-120.841,967.399,-1330.0,-5110.0,420.0,-94.24,-10.64,-272.08
335857.1157,309.819,-119.682,968.863,-1662.5,-5582.5,665.0,-86.64,3.04,-259.92
335857.1657,311.405,-119.133,966.423,-2703.75,-4681.25,183.75,-91.2,-12.16,-267.52
335857.2157,317.261,-129.137,974.475,-17.5,-4628.75,17.5,-80.56,-3.04,-256.88
335857.2657,299.632,-113.094,968.375,-1881.25,-5031.25,358.75,-86.64,4.56,-261.44
335857.3157,314.211,-119.499,968.131,-3097.5,-5215.0,603.75,-98.8,-9.12,-261.44
335857.3657,313.723,-131.333,970.815,-1627.5,-3911.25,2003.75,-100.32,-6.08,-281.2
335857.4157,301.523,-121.207,970.571,-1400.0,-3718.75,1907.5,-97.28,-6.08,-272.08
335857.4657,311.283,-133.895,969.168,-1365.0,-4418.75,1400.0,-97.28,6.08,-262.96
335857.5157,301.157,-122.976,973.987,-1041.25,-3622.5,1190.0,-83.6,0.0,-276.64
335857.5657,299.937,-129.076,972.462,-1417.5,-4655.0,542.5,-86.64,-3.04,-264.48
335857.6157,309.209,-128.1,971.242,-420.0,-4637.5,-700.0,-97.28,-7.6,-275.12
335857.6657,302.926,-118.523,970.571,35.0,-4480.0,-1102.5,-86.64,3.04,-278.16
335857.7157,304.024,-113.765,971.547,-2047.5,-4147.5,-901.25,-100.32,-13.68,-267.52
335857.7657,296.46,-124.074,976.366,-796.25,-4252.5,498.75,-83.6,0.0,-266.0
335857.8157,293.41,-115.29,974.109,-1058.75,-4698.75,1050.0,-92.72,10.64,-275.12
335857.8657,299.022,-123.281,973.987,-1688.75,-5092.5,1076.25,-89.68,-16.72,-273.6
335857.9157,302.438,-117.303,968.924,-1487.5,-5600.0,1172.5,-94.24,-3.04,-253.84
335857.9657,303.231,-120.597,968.375,-3255.0,-5827.5,-218.75,-86.64,10.64,-267.52
335858.0157,306.037,-126.514,972.95,-367.5,-4033.75,-507.5,-77.52,-3.04,-278.16
335858.0657,293.715,-114.131,973.499,-1417.5,-4567.5,840.0,-83.6,3.04,-275.12
335858.1157,297.436,-121.39,973.133,-2957.5,-5556.25,367.5,-98.8,-10.64,-261.44
335858.1657,296.826,-127.917,978.684,-1715.0,-6081.25,1828.75,-77.52,0.0,-270.56
335858.2157,286.822,-123.342,975.756,-1592.5,-6973.75,1286.25,-82.08,-12.16,-256.88
335858.2657,300.486,-132.736,976.549,-2073.75,-8207.5,595.0,-92.72,1.52,-250.8
335858.3157,308.721,-131.455,972.096,-1575.0,-8487.5,822.5,-103.36,13.68,-273.6
335858.3659,310.673,-127.673,967.582,-2205.0,-8898.75,-131.25,-80.56,-4.56,-266.0
335858.4157,339.709,-135.115,953.857,-971.25,-6273.75,-875.0,-100.32,-12.16,-259.92
335858.4658,327.631,-123.708,961.116,-411.25,-3963.75,-1198.75,-104.88,13.68,-267.52
335858.5157,312.93,-116.327,966.423,-1645.0,-4042.5,-1111.25,-89.68,3.04,-267.52
335858.5658,310.368,-126.819,976.305,-1023.75,-4917.5,385.0,-112.48,-3.04,-266.0
335858.6157,305.366,-121.756,976.061,-673.75,-5853.75,1268.75,-106.4,-15.2,-272.08
335858.6657,322.69,-125.05,966.118,-1513.75,-7455.0,813.75,-88.16,4.56,-278.16
335858.7157,328.851,-126.087,961.787,-1461.25,-6343.75,192.5,-107.92,10.64,-278.16
335858.7657,327.448,-125.172,961.299,-2432.5,-5031.25,78.75,-88.16,0.0,-276.64
335858.8157,331.779,-129.076,964.166,1216.25,-2992.5,-481.25,-88.16,12.16,-256.88
335858.8657,318.786,-108.824,965.752,-437.5,-2563.75,105.0,-95.76,6.08,-262.96
335858.9157,301.645,-117.425,975.207,-2152.5,-3570.0,280.0,-88.16,-16.72,-259.92
335858.9657,303.17,-127.917,975.512,-1102.5,-4418.75,1715.0,-89.68,0.0,-285.76
335859.0157,307.623,-113.46,969.168,-595.0,-5311.25,1618.75,-109.44,-4.56,-266.0
335859.0657,323.422,-127.246,964.654,-2248.75,-4375.0,96.25,-86.64,6.08,-273.6
335859.1157,312.747,-126.392,971.486,-997.5,-3675.0,192.5,-100.32,1.52,-266.0
335859.1657,304.268,-122.976,973.926,-1347.5,-4418.75,-271.25,-94.24,-6.08,-288.8
335859.2157,308.111,-123.464,972.95,-1417.5,-5180.0,-743.75,-95.76,3.04,-267.52
335859.2657,313.113,-115.839,969.412,-411.25,-4821.25,-262.5,-109.44,-6.08,-267.52
335859.3157,308.782,-111.142,969.046,-1872.5,-5092.5,-175.0,-106.4,0.0,-259.92
335859.3657,318.969,-119.499,968.436,-2091.25,-4978.75,787.5,-88.16,0.0,-273.6
335859.4157,305.61,-119.194,975.39,-1067.5,-3692.5,1242.5,-110.96,-7.6,-272.08
335859.4658,299.754,-119.072,975.634,-1793.75,-5311.25,-175.0,-103.36,-12.16,-267.52
335859.5157,311.1,-116.937,970.205,-1811.25,-6256.25,-166.25,-94.24,-15.2,-264.48
335859.5657,318.603,-128.222,968.985,-2257.5,-5932.5,875.0,-79.04,3.04,-252.32
335859.6157,320.25,-124.623,968.619,656.25,-4462.5,192.5,-91.2,4.56,-253.84
335859.6657,312.869,-106.323,968.619,-2826.25,-5022.5,-498.75,-92.72,-3.04,-258.4
335859.7157,308.538,-124.989,972.462,-2362.5,-3753.75,472.5,-85.12,-4.56,-247.76
335859.7657,303.475,-127.246,978.196,-936.25,-4795.0,2205.0,-94.24,-4.56,-273.6
335859.8157,307.318,-119.56,972.584,-2170.0,-6081.25,1706.25,-86.64,6.08,-255.36
335859.8657,316.895,-130.174,968.68,-1452.5,-5521.25,288.75,-88.16,6.08,-262.96
335859.9157,313.357,-117.852,965.935,-1732.5,-5267.5,-210.0,-109.44,3.04,-269.04
335859.9657,315.065,-122.976,970.571,-1680.0,-4646.25,-323.75,-88.16,-3.04,-270.56
335860.0157,314.211,-123.891,971.425,-962.5,-4602.5,910.0,-106.4,-9.12,-275.12
335860.0657,303.78,-111.935,972.279,-1251.25,-5110.0,315.0,-80.56,-3.04,-272.08
335860.1157,310.246,-119.316,971.364,-2782.5,-5442.5,787.5,-86.64,6.08,-269.04
335860.1657,310.978,-127.368,970.022,-1417.5,-5468.75,1260.0,-104.88,-16.72,-269.04
335860.2157,315.37,-118.462,965.935,-1225.0,-5153.75,787.5,-83.6,-10.64,-282.72
335860.2657,310.856,-117.608,965.569,-1741.25,-5075.0,901.25,-100.32,-4.56,-261.44
335860.3157,316.712,-118.889,966.545,-1951.25,-5950.0,1478.75,-86.64,-13.68,-269.04
335860.3658,327.875,-131.089,969.229,-1540.0,-5083.75,1277.5,-98.8,-7.6,-273.6
335860.4157,311.283,-115.534,970.876,-201.25,-3928.75,52.5,-94.24,-10.64,-270.56
335860.4657,313.296,-112.179,964.532,-2808.75,-4926.25,70.0,-97.28,-9.12,-273.6
335860.5157,310.002,-119.133,970.998,-2345.0,-5241.25,1400.0,-94.24,3.04,-267.52
335860.5657,317.566,-125.538,971.486,-1365.0,-4550.0,3036.25,-86.64,-9.12,-278.16
335860.6157,315.37,-127.124,967.399,-2913.75,-5582.5,1942.5,-82.08,0.0,-267.52
335860.6657,322.751,-133.651,970.205,-1120.0,-4243.75,498.75,-94.24,-4.56,-282.72
335860.7157,308.294,-121.878,969.595,-2240.0,-4873.75,630.0,-88.16,-4.56,-275.12
335860.7657,315.797,-126.087,968.497,-1575.0,-5775.0,962.5,-82.08,0.0,-267.52
335860.8157,324.947,-121.634,966.606,-1286.25,-4550.0,1548.75,-95.76,1.52,-266.0
335860.8657,305.366,-119.255,973.865,-2502.5,-4593.75,1015.0,-85.12,-7.6,-272.08
335860.9157,312.442,-123.891,966.85,-2511.25,-4655.0,717.5,-89.68,-3.04,-267.52
335860.9657,303.109,-133.529,973.743,-2432.5,-5083.75,1583.75,-104.88,-3.04,-278.16
335861.0157,311.039,-128.222,969.168,-1793.75,-4742.5,595.0,-92.72,10.64,-269.04
335861.0657,310.795,-126.88,967.033,-2275.0,-4803.75,105.0,-95.76,-12.16,-269.04
335861.1159,314.028,-129.869,965.874,-2581.25,-4558.75,-323.75,-106.4,-4.56,-282.72
335861.1657,316.529,-137.006,973.133,-1916.25,-4515.0,-463.75,-91.2,9.12,-267.52
335861.2158,308.05,-122.183,968.375,-1977.5,-4383.75,498.75,-103.36,-10.64,-275.12
335861.2657,306.037,-130.662,970.815,-2563.75,-4856.25,1050.0,-85.12,-15.2,-269.04
335861.3157,305.793,-136.64,970.571,-2345.0,-5285.0,1242.5,-79.04,4.56,-249.28
335861.3657,310.002,-134.932,964.349,-1531.25,-4550.0,1155.0,-100.32,3.04,-270.56
335861.4157,315.736,-137.311,968.863,-1925.0,-4261.25,875.0,-101.84,3.04,-269.04
335861.4657,309.758,-132.37,973.621,-1443.75,-4200.0,910.0,-80.56,-4.56,-253.84
335861.5157,306.342,-137.494,972.645,-1907.5,-5451.25,761.25,-79.04,-3.04,-269.04
335861.5657,314.76,-140.117,965.203,-1435.0,-5652.5,0.0,-88.16,-4.56,-266.0
335861.6157,315.126,-132.736,967.277,-691.25,-4497.5,-848.75,-86.64,6.08,-253.84
335861.6657,306.83,-127.246,968.375,-1723.75,-4410.0,-1120.0,-85.12,4.56,-269.04
335861.7157,307.135,-135.115,971.12,-1400.0,-4383.75,-297.5,-94.24,1.52,-264.48
335861.7657,307.684,-129.686,973.072,-971.25,-4725.0,446.25,-79.04,-6.08,-258.4
335861.8157,302.804,-133.041,970.632,-1128.75,-4620.0,-218.75,-89.68,-7.6,-256.88
335861.8657,310.49,-129.076,972.462,-1198.75,-5862.5,-638.75,-86.64,-7.6,-275.12
335861.9157,310.124,-137.128,967.399,-1820.0,-5250.0,-1102.5,-103.36,4.56,-256.88
335861.9657,320.067,-133.407,969.595,805.0,-3876.25,-796.25,-83.6,-10.64,-267.52
335862.0157,297.07,-118.096,973.499,-1093.75,-4865.0,148.75,-104.88,4.56,-279.68
335862.0657,307.867,-125.233,971.669,-1960.0,-5425.0,-105.0,-100.32,1.52,-275.12
335862.1157,310.917,-129.381,971.242,-647.5,-5757.5,1443.75,-97.28,3.04,-262.96
335862.1657,309.575,-121.39,966.911,-2178.75,-5783.75,1128.75,-80.56,-15.2,-252.32
335862.2157,316.651,-130.296,967.826,-1006.25,-4313.75,945.0,-94.24,-10.64,-269.04
335862.2657,303.78,-123.952,973.011,-1373.75,-4322.5,420.0,-92.72,0.0,-258.4
335862.3157,303.841,-129.93,972.34,-1907.5,-6938.75,-227.5,-89.68,15.2,-259.92
335862.3657,320.372,-126.697,969.9,-717.5,-5740.0,-866.25,-103.36,-3.04,-261.44
335862.4157,312.32,-115.9,967.155,-1155.0,-4427.5,-953.75,-97.28,-7.6,-273.6
335862.4657,307.684,-116.815,969.412,-1863.75,-4462.5,-70.0,-100.32,-6.08,-261.44
335862.5157,305.122,-125.355,974.963,-1181.25,-4252.5,953.75,-104.88,-3.04,-262.96
335862.5657,300.73,-123.586,973.316,-1960.0,-5206.25,673.75,-85.12,3.04,-273.6
335862.6157,305.915,-126.758,971.547,-1898.75,-5801.25,-8.75,-89.68,-6.08,-269.04
335862.6658,312.808,-122.183,967.948,-1583.75,-5328.75,-175.0,-82.08,-4.56,-281.2
335862.7157,303.658,-120.109,973.011,-2948.75,-5661.25,787.5,-65.36,0.0,-255.36
335862.7657,316.712,-138.47,968.68,367.5,-5363.75,857.5,-106.4,12.16,-279.68
335862.8157,312.808,-116.327,967.582,-1583.75,-5818.75,516.25,-88.16,-3.04,-262.96
335862.8657,313.357,-120.048,966.972,-2870.0,-5066.25,-271.25,-94.24,4.56,-273.6
335862.9157,315.065,-132.065,969.473,-1365.0,-5871.25,1382.5,-92.72,-7.6,-270.56
335862.9657,316.102,-120.719,967.948,-1837.5,-5827.5,1286.25,-82.08,7.6,-264.48
335863.0157,322.934,-130.052,966.728,-1767.5,-5005.0,752.5,-89.68,1.52,-278.16
335863.0657,315.492,-124.074,970.876,-918.75,-4541.25,1076.25,-89.68,0.0,-256.88
335863.1157,318.847,-120.78,963.19,-1583.75,-4777.5,997.5,-101.84,-3.04,-267.52
335863.1657,317.505,-127.795,966.667,-1277.5,-4480.0,1242.5,-98.8,-12.16,-264.48
335863.2157,313.54,-121.024,968.497,-1260.0,-3780.0,1216.25,-88.16,-3.04,-270.56
335863.2657,312.869,-122.244,967.887,-2572.5,-4252.5,647.5,-103.36,4.56,-269.04
335863.3157,306.159,-130.174,972.828,-2248.75,-4760.0,682.5,-86.64,9.12,-267.52
335863.3657,311.344,-129.137,966.789,-1855.0,-4261.25,341.25,-83.6,3.04,-267.52
335863.4157,304.512,-130.784,971.791,-1767.5,-4086.25,507.5,-94.24,3.04,-270.56
335863.4657,303.963,-127.246,973.926,-1680.0,-4523.75,945.0,-85.12,7.6,-264.48
335863.5157,306.769,-126.27,966.667,-2695.0,-5608.75,1478.75,-97.28,1.52,-255.36
335863.5657,311.039,-141.642,971.486,-350.0,-4217.5,883.75,-97.28,-12.16,-267.52
335863.6157,306.647,-122.427,965.02,-1470.0,-4672.5,428.75,-86.64,9.12,-275.12
335863.6657,305.488,-131.943,971.486,-2791.25,-4313.75,-43.75,-94.24,1.52,-269.04
335863.7157,304.512,-141.703,972.462,-822.5,-4865.0,1085.0,-85.12,12.16,-261.44
335863.7659,303.292,-128.893,974.048,-1067.5,-5276.25,612.5,-101.84,4.56,-253.84
335863.8157,313.235,-140.971,965.935,-1137.5,-4576.25,-131.25,-85.12,0.0,-266.0
335863.8658,302.438,-124.379,972.462,-1286.25,-5048.75,201.25,-76.0,-7.6,-256.88
335863.9157,305.061,-130.784,972.218,-1715.0,-5285.0,-43.75,-103.36,-3.04,-269.04
335863.9658,308.355,-134.932,970.998,-778.75,-5967.5,-175.0,-92.72,-4.56,-266.0
335864.0157,315.37,-126.636,966.423,-962.5,-5801.25,-1015.0,-94.24,-9.12,-262.96
335864.0657,309.148,-124.867,967.826,-2082.5,-5652.5,-1828.75,-86.64,-7.6,-272.08
335864.1157,307.135,-129.686,970.876,-1303.75,-4952.5,-236.25,-101.84,1.52,-256.88
335864.1657,304.756,-124.989,970.937,-1155.0,-5836.25,577.5,-88.16,9.12,-262.96
335864.2157,308.05,-128.71,970.083,-1566.25,-7262.5,-105.0,-107.92,-4.56,-264.48
335864.2657,310.063,-130.906,965.935,-1417.5,-7647.5,-980.0,-94.24,-4.56,-266.0
335864.3157,331.474,-128.466,962.397,-2187.5,-6816.25,-1181.25,-98.8,-3.04,-279.68
335864.3657,317.322,-129.198,971.486,910.0,-4646.25,-1881.25,-97.28,3.04,-262.96
335864.4157,314.455,-108.519,966.484,-822.5,-5775.0,-813.75,-100.32,12.16,-262.96
335864.4657,313.845,-118.828,967.399,-1898.75,-5556.25,-175.0,-103.36,7.6,-262.96
335864.5157,324.886,-126.331,968.985,-691.25,-5075.0,2003.75,-100.32,7.6,-269.04
335864.5657,308.294,-121.451,971.608,-175.0,-5993.75,1260.0,-107.92,0.0,-264.48
335864.6157,326.228,-127.795,967.704,-647.5,-5215.0,402.5,-107.92,0.0,-272.08
335864.6657,316.834,-121.024,967.399,-1102.5,-5888.75,490.0,-88.16,9.12,-262.96
335864.7157,318.969,-125.233,970.632,-1408.75,-7752.5,-743.75,-101.84,-15.2,-273.6
335864.7657,320.433,-121.756,967.155,-560.0,-6973.75,-1496.25,-95.76,1.52,-284.24
335864.8157,327.326,-112.484,965.996,-1417.5,-8015.0,-1828.75,-97.28,6.08,-261.44
335864.8657,325.13,-117.852,962.214,-1723.75,-6168.75,-315.0,-106.4,3.04,-278.16
335864.9157,327.936,-115.961,967.521,-1268.75,-8645.0,1312.5,-91.2,1.52,-256.88
335864.9658,325.618,-117.364,960.567,-1837.5,-7953.75,2283.75,-98.8,7.6,-261.44
335865.0157,348.188,-121.695,963.007,210.0,-8977.5,2948.75,-97.28,-10.64,-256.88
335865.0657,341.844,-115.229,962.397,236.25,-6571.25,2196.25,-104.88,3.04,-270.56
335865.1157,345.504,-115.9,957.029,-3115.0,-6037.5,831.25,-103.36,-7.6,-270.56
335865.1657,343.491,-116.022,964.654,-1837.5,-5775.0,-691.25,-106.4,-18.24,-252.32
335865.2157,336.537,-115.107,961.848,-1233.75,-4453.75,638.75,-85.12,-7.6,-253.84
335865.2657,345.016,-110.837,958.066,-2800.0,-6238.75,918.75,-103.36,4.56,-262.96
335865.3157,374.601,-123.159,949.77,-1610.0,-2975.0,2353.75,-83.6,-3.04,-262.96
335865.3657,348.92,-118.584,957.761,315.0,-490.0,2861.25,-106.4,3.04,-259.92
335865.4157,380.396,-138.714,939.034,1995.0,-2537.5,1006.25,-94.24,10.64,-255.36
335865.4657,336.72,-118.767,964.654,-1172.5,-1085.0,1137.5,-106.4,-4.56,-256.88
335865.5157,319.762,-133.041,966.911,-1767.5,-3788.75,-70.0,-101.84,-7.6,-253.84
335865.5657,332.084,-129.015,965.081,-402.5,-4821.25,-35.0,-94.24,1.52,-256.88
335865.6157,324.764,-108.641,965.142,-1155.0,-4515.0,-1242.5,-95.76,-6.08,-269.04
335865.6657,340.075,-124.257,962.397,-1855.0,-7140.0,-61.25,-100.32,-9.12,-256.88
335865.7157,332.999,-130.662,963.861,78.75,-4392.5,1505.0,-97.28,3.04,-262.96
335865.7657,332.145,-116.815,964.349,498.75,-5906.25,2555.0,-114.0,12.16,-278.16
335865.8157,318.908,-121.695,970.632,201.25,-7367.5,2082.5,-85.12,9.12,-266.0
335865.8657,320.067,-112.606,962.824,-1198.75,-5110.0,2100.0,-106.4,7.6,-269.04
335865.9157,337.391,-122.183,971.12,-2003.75,-3421.25,551.25,-101.84,-6.08,-258.4
335865.9657,334.646,-110.837,964.593,-1820.0,-5433.75,-980.0,-100.32,-15.2,-266.0
335866.0157,336.415,-116.327,956.236,-3001.25,-4733.75,35.0,-100.32,1.52,-267.52
335866.0657,337.513,-118.706,960.445,-3710.0,-3832.5,848.75,-106.4,0.0,-258.4
335866.1157,333.731,-133.224,970.693,-1067.5,-2870.0,2012.5,-95.76,-3.04,-261.44
335866.1657,330.315,-125.538,971.913,-813.75,-5442.5,1618.75,-98.8,3.04,-253.84
335866.2157,335.683,-116.693,958.554,-2082.5,-3211.25,253.75,-97.28,-4.56,-247.76
335866.2657,331.962,-122.427,964.837,-2616.25,-3570.0,-420.0,-103.36,0.0,-269.04
335866.3157,339.709,-138.226,962.275,-1732.5,-4305.0,78.75,-106.4,4.56,-267.52
335866.3657,341.173,-125.904,961.482,1435.0,-2423.75,297.5,-100.32,-3.04,-269.04
335866.4157,330.864,-119.926,961.482,-428.75,-1802.5,-568.75,-95.76,1.52,-264.48
335866.4657,317.932,-114.253,967.277,-1680.0,-236.25,-1443.75,-103.36,3.04,-267.52
335866.5159,306.586,-119.072,975.329,-988.75,-2712.5,-1417.5,-89.68,1.52,-273.6
335866.5657,305.793,-120.17,972.828,-1312.5,-1303.75,-770.0,-103.36,-9.12,-264.48
335866.6158,302.011,-121.268,973.804,-656.25,-2590.0,-1225.0,-101.84,-13.68,-285.76
335866.6657,312.198,-109.068,970.449,-1540.0,-3010.0,-2012.5,-100.32,1.52,-272.08
335866.7157,319.579,-121.512,970.266,-1977.5,-3885.0,-1802.5,-101.84,-4.56,-282.72
335866.7657,306.342,-110.532,971.669,-455.0,-2651.25,-2126.25,-86.64,-3.04,-270.56
335866.8157,300.303,-101.626,975.939,-1645.0,-3193.75,-568.75,-85.12,-18.24,-278.16
335866.8657,298.29,-108.641,974.902,-2808.75,-5040.0,245.0,-80.56,-9.12,-270.56
335866.9157,305.671,-122.183,975.512,-1286.25,-5127.5,953.75,-76.0,0.0,-273.6
335866.9657,307.257,-118.035,970.144,-1120.0,-4873.75,1076.25,-97.28,-7.6,-284.24
335867.0158,304.939,-115.351,974.231,-1426.25,-5433.75,-542.5,-88.16,-15.2,-272.08
335867.0657,308.538,-115.412,971.242,-1531.25,-5022.5,-455.0,-101.84,1.52,-275.12
335867.1157,309.819,-122.793,966.545,-787.5,-5057.5,682.5,-101.84,-6.08,-276.64
335867.1657,310.002,-107.97,969.473,-1163.75,-3053.75,840.0,-94.24,-10.64,-267.52
335867.2157,291.641,-108.519,979.721,-2353.75,-3876.25,-297.5,-104.88,7.6,-279.68
335867.2657,290.543,-112.423,977.708,-3036.25,-5740.0,-192.5,-85.12,-9.12,-272.08
335867.3157,302.438,-120.292,974.963,-1942.5,-5083.75,708.75,-92.72,-3.04,-269.04
335867.3657,303.17,-117.059,967.216,-1330.0,-5285.0,1338.75,-80.56,-16.72,-270.56
335867.4157,304.512,-116.51,969.961,-2135.0,-4751.25,813.75,-85.12,1.52,-272.08
335867.4657,305.183,-120.719,969.412,-2161.25,-4016.25,-227.5,-100.32,0.0,-279.68
335867.5157,306.281,-128.1,976.732,-1968.75,-4943.75,-236.25,-86.64,-18.24,-269.04
335867.5657,299.388,-104.981,976.122,-1015.0,-4068.75,-420.0,-100.32,7.6,-272.08
335867.6157,297.192,-110.41,973.316,-2773.75,-5748.75,385.0,-98.8,-4.56,-261.44
335867.6657,307.013,-118.157,968.07,-2310.0,-5591.25,1128.75,-85.12,-3.04,-281.2
335867.7158,303.048,-120.963,973.621,-805.0,-4112.5,2117.5,-92.72,-6.08,-270.56
335867.7657,303.231,-119.56,972.645,-1470.0,-4541.25,1820.0,-97.28,-6.08,-275.12
335867.8157,303.719,-118.462,971.791,-1338.75,-4567.5,682.5,-86.64,15.2,-281.2
335867.8657,299.998,-119.194,972.95,-1706.25,-4698.75,385.0,-86.64,-3.04,-267.52
335867.9157,301.645,-121.451,972.096,-1216.25,-5565.0,-43.75,-107.92,7.6,-282.72
335867.9657,310.795,-113.643,967.643,-1216.25,-4261.25,-341.25,-97.28,0.0,-269.04
335868.0157,305.854,-113.765,972.096,-1382.5,-3561.25,-70.0,-89.68,-6.08,-273.6
335868.0657,297.497,-117.303,974.17,-1793.75,-4165.0,551.25,-94.24,-7.6,-253.84
335868.1157,298.168,-120.109,976.305,-1277.5,-3246.25,840.0,-88.16,-9.12,-270.56
335868.1657,289.628,-119.804,977.952,-1032.5,-3955.0,516.25,-95.76,-6.08,-266.0
335868.2157,294.264,-109.556,976.61,-1863.75,-4733.75,-271.25,-79.04,-6.08,-258.4
335868.2657,297.985,-118.889,972.157,-2896.25,-5005.0,218.75,-107.92,-4.56,-266.0
335868.3157,300.486,-132.858,974.048,-638.75,-4121.25,1023.75,-92.72,-6.08,-278.16
335868.3657,290.421,-101.016,975.512,-1522.5,-4672.5,822.5,-88.16,-10.64,-269.04
335868.4157,294.142,-113.46,973.377,-3246.25,-4593.75,113.75,-98.8,-13.68,-270.56
335868.4657,293.532,-125.66,976.732,-1723.75,-4182.5,1688.75,-82.08,13.68,-272.08
335868.5157,291.824,-116.022,971.669,-1128.75,-5215.0,1531.25,-97.28,18.24,-278.16
335868.5657,300.974,-123.769,974.902,-1627.5,-4375.0,1198.75,-85.12,-15.2,-269.04
335868.6157,293.288,-118.401,979.843,-1470.0,-5066.25,595.0,-98.8,3.04,-273.6
335868.6657,291.153,-119.865,974.292,-1653.75,-5276.25,-96.25,-98.8,-6.08,-272.08
335868.7157,304.146,-121.573,968.131,-927.5,-5031.25,-367.5,-95.76,4.56,-281.2
335868.7657,300.12,-112.606,974.902,-1015.0,-3823.75,-787.5,-83.6,-13.68,-276.64
335868.8157,290.543,-108.519,976.427,-1557.5,-3622.5,-455.0,-86.64,0.0,-278.16
335868.8657,292.373,-113.582,977.708,-1820.0,-4733.75,560.0,-85.12,-15.2,-267.52
