TimeStamp,ax,ay,az,gx,gy,gz,mx,my,mz
4185.0954,335.744,-198.677,954.345,-4383.75,-7271.25,-2178.75,-114.0,13.68,-243.2
4185.1454,350.933,-200.141,945.744,-3185.0,-6781.25,-2458.75,-110.96,18.24,-256.88
4185.1954,357.643,-197.701,940.315,-385.0,-3797.5,-560.0,-118.56,4.56,-241.68
4185.2454,340.807,-171.227,954.65,-726.25,-2065.0,1085.0,-114.0,1.52,-252.32
4185.2954,342.698,-178.73,947.452,-2170.0,70.0,3141.25,-107.92,13.68,-250.8
4185.3454,318.359,-177.083,964.227,-656.25,-3141.25,5031.25,-97.28,12.16,-261.44
4185.3954,327.509,-187.148,956.724,-2922.5,-5118.75,5127.5,-100.32,13.68,-249.28
4185.4454,336.476,-174.887,953.613,-1286.25,-3736.25,2493.75,-121.6,9.12,-258.4
4185.4954,346.236,-194.163,953.552,-3237.5,-7770.0,1023.75,-86.64,15.2,-253.84
4185.5454,369.843,-214.842,947.391,-1128.75,-980.0,2012.5,-110.96,-13.68,-249.28
4185.5954,296.765,-211.792,959.408,-586.25,-4156.25,4331.25,-97.28,13.68,-247.76
4185.6454,326.716,-220.515,956.968,595.0,-4908.75,3386.25,-88.16,13.68,-261.44
4185.6954,330.132,-199.287,956.175,-332.5,-1548.75,971.25,-106.4,12.16,-261.44
4185.7454,314.577,-213.561,959.408,2782.5,-568.75,2091.25,-97.28,10.64,-258.4
4185.7954,309.636,-184.952,962.885,2712.5,288.75,2660.0,-97.28,10.64,-253.84
4185.8454,307.562,-188.063,969.107,525.0,-2388.75,2362.5,-94.24,22.8,-264.48
4185.8954,307.135,-182.146,966.545,1128.75,-2283.75,367.5,-101.84,19.76,-269.04
4185.9454,311.222,-173.972,973.072,-682.5,-3990.0,-875.0,-95.76,13.68,-256.88
4185.9954,310.978,-169.946,962.641,-1391.25,-1391.25,455.0,-76.0,12.16,-264.48
4186.0454,304.512,-185.196,968.07,-1776.25,-743.75,2301.25,-94.24,1.52,-252.32
4186.0954,295.667,-179.584,964.654,236.25,-551.25,2222.5,-104.88,18.24,-249.28
4186.1454,290.726,-169.702,975.695,-1067.5,-1907.5,-2537.5,-107.92,16.72,-267.52
4186.1954,296.338,-195.017,976.488,-3325.0,-1776.25,-988.75,-92.72,18.24,-256.88
4186.2454,276.147,-155.245,976.244,-446.25,140.0,-315.0,-101.84,7.6,-267.52
4186.2954,280.173,-167.506,977.098,-5118.75,-4340.0,-665.0,-100.32,15.2,-266.0
4186.3454,295.057,-205.204,961.604,-3753.75,-3508.75,1925.0,-94.24,12.16,-270.56
4186.3954,294.142,-186.782,967.887,-236.25,-2423.75,3911.25,-103.36,4.56,-278.16
4186.4454,280.539,-190.93,973.194,-1365.0,-3167.5,3876.25,-85.12,13.68,-273.6
4186.4954,291.031,-196.359,977.281,-332.5,-4462.5,3220.0,-94.24,10.64,-267.52
4186.5454,273.707,-198.982,979.111,1198.75,-4208.75,2458.75,-104.88,3.04,-258.4
4186.5954,290.604,-195.2,971.974,2336.25,-7253.75,315.0,-86.64,15.2,-267.52
4186.6454,287.737,-160.064,962.763,-52.5,-5547.5,26.25,-88.16,24.32,-264.48
4186.6954,292.678,-176.412,975.329,-700.0,-5241.25,1767.5,-94.24,6.08,-261.44
4186.7454,278.953,-167.506,970.022,-953.75,-4567.5,3325.0,-101.84,15.2,-264.48
4186.7954,284.016,-173.301,975.512,-2633.75,-5862.5,1986.25,-85.12,27.36,-269.04
4186.8454,289.14,-183.915,969.473,-3412.5,-4016.25,2205.0,-88.16,1.52,-272.08
4186.8954,289.994,-195.566,974.963,-402.5,-7376.25,1645.0,-98.8,-9.12,-247.76
4186.9454,304.939,-172.386,969.9,-857.5,-4191.25,1636.25,-86.64,13.68,-270.56
4186.9954,270.718,-182.146,975.939,-2660.0,-6991.25,-87.5,-104.88,24.32,-270.56
4187.0454,308.355,-186.233,966.728,-1382.5,-3867.5,315.0,-103.36,21.28,-272.08
4187.0954,280.173,-179.706,973.865,-577.5,-4077.5,682.5,-91.2,15.2,-258.4
4187.1454,302.011,-170.129,968.375,-1750.0,-4628.75,-183.75,-91.2,9.12,-273.6
4187.1954,286.151,-173.118,969.534,-3228.75,-3500.0,201.25,-91.2,22.8,-275.12
4187.2454,280.051,-192.699,971.425,-3001.25,-6168.75,2248.75,-91.2,16.72,-264.48
4187.2954,299.754,-187.209,970.632,-1461.25,-6833.75,2353.75,-88.16,6.08,-253.84
4187.3454,301.096,-184.464,966.24,-2108.75,-5591.25,1671.25,-100.32,-3.04,-253.84
4187.3954,289.506,-196.908,970.754,-1872.5,-5582.5,848.75,-89.68,1.52,-249.28
4187.4454,293.532,-184.952,965.874,-1435.0,-6160.0,402.5,-95.76,18.24,-250.8
4187.4954,297.802,-186.355,964.227,-2310.0,-6737.5,140.0,-103.36,4.56,-276.64
4187.5454,308.05,-182.39,958.066,-2712.5,-5145.0,638.75,-94.24,1.52,-256.88
4187.5954,311.405,-199.226,965.63,-883.75,-3622.5,350.0,-95.76,12.16,-255.36
4187.6454,285.846,-176.656,969.656,-2485.0,-3255.0,-17.5,-89.68,13.68,-250.8
4187.6954,295.789,-193.736,972.462,-918.75,-5766.25,411.25,-104.88,16.72,-259.92
4187.7454,304.695,-177.815,968.985,-1750.0,-3736.25,367.5,-94.24,27.36,-262.96
4187.7954,285.785,-191.601,971.425,-2152.5,-6037.5,875.0,-104.88,16.72,-264.48
4187.8454,310.612,-187.026,965.874,-1058.75,-5652.5,1242.5,-110.96,7.6,-262.96
4187.8954,294.813,-189.283,968.985,-3123.75,-3360.0,1155.0,-115.52,16.72,-264.48
4187.9454,294.813,-202.032,966.362,-70.0,-4838.75,1242.5,-86.64,16.72,-258.4
4187.9954,303.109,-177.937,966.179,-568.75,-3290.0,-857.5,-101.84,22.8,-259.92
4188.0454,276.879,-195.2,972.889,-2590.0,-3071.25,-1513.75,-115.52,18.24,-262.96
4188.0954,281.454,-193.004,972.523,-586.25,-4357.5,-665.0,-82.08,19.76,-281.2
4188.1454,287.493,-180.072,974.841,-1697.5,-5101.25,-446.25,-98.8,19.76,-262.96
4188.1954,291.702,-187.392,966.057,-3325.0,-5031.25,-2187.5,-100.32,12.16,-250.8
4188.2454,297.375,-191.174,967.521,-2467.5,-5582.5,-1662.5,-80.56,16.72,-273.6
4188.2954,296.582,-182.512,968.863,-2511.25,-3570.0,-1802.5,-97.28,16.72,-270.56
4188.3454,282.43,-193.858,971.791,-2353.75,-4165.0,-1312.5,-91.2,12.16,-262.96
4188.3954,287.127,-190.93,969.046,-1898.75,-3990.0,-2117.5,-92.72,21.28,-258.4
4188.4454,284.016,-188.673,971.913,-1575.0,-4882.5,-1986.25,-82.08,16.72,-252.32
4188.4954,290.97,-187.636,971.913,-752.5,-6107.5,-411.25,-106.4,7.6,-253.84
4188.5454,303.658,-178.974,968.192,-507.5,-5503.75,945.0,-98.8,24.32,-262.96
4188.5954,295.85,-189.649,965.142,-2537.5,-6588.75,-210.0,-95.76,16.72,-262.96
4188.6455,306.952,-191.601,964.044,-1312.5,-6623.75,-376.25,-103.36,13.68,-255.36
4188.6954,304.268,-182.695,967.887,-1478.75,-4060.0,-586.25,-94.24,4.56,-270.56
4188.7454,294.996,-183.732,967.155,-1811.25,-4637.5,-542.5,-94.24,16.72,-269.04
4188.7954,301.035,-182.939,970.388,-1872.5,-5468.75,1286.25,-100.32,6.08,-261.44
4188.8454,290.177,-187.331,969.595,-1688.75,-5118.75,507.5,-100.32,18.24,-250.8
4188.8954,286.395,-177.632,964.532,-3456.25,-5775.0,-962.5,-88.16,10.64,-262.96
4188.9454,310.612,-215.269,975.939,-796.25,-4733.75,201.25,-98.8,13.68,-246.24
4188.9954,286.7,-174.094,963.8,-953.75,-5381.25,630.0,-100.32,10.64,-261.44
4189.0454,296.887,-183.61,964.227,-1715.0,-6606.25,1032.5,-92.72,13.68,-262.96
4189.0954,301.584,-194.59,971.73,-1295.0,-4681.25,2292.5,-94.24,1.52,-258.4
4189.1454,289.079,-188.917,966.85,-455.0,-5635.0,2310.0,-104.88,12.16,-264.48
4189.1954,305.366,-185.562,969.656,-2668.75,-6457.5,-183.75,-101.84,27.36,-255.36
4189.2454,298.29,-197.213,964.837,-2292.5,-6492.5,875.0,-88.16,7.6,-262.96
4189.2954,305.61,-195.444,966.301,-980.0,-6991.25,2292.5,-109.44,7.6,-246.24
4189.3454,308.965,-185.989,962.214,-1338.75,-7577.5,1041.25,-92.72,21.28,-262.96
4189.3954,314.516,-192.455,967.582,-1128.75,-7052.5,-218.75,-100.32,22.8,-237.12
4189.4454,304.146,-189.649,960.201,-1881.25,-6982.5,-210.0,-100.32,3.04,-264.48
4189.4954,319.335,-185.623,962.336,-787.5,-7061.25,367.5,-95.76,9.12,-264.48
4189.5454,316.651,-183.61,961.909,-2240.0,-6947.5,498.75,-98.8,16.72,-246.24
4189.5954,317.81,-201.666,962.58,-2205.0,-7315.0,437.5,-115.52,7.6,-253.84
4189.6454,323.971,-178.974,961.36,-2030.0,-6055.0,96.25,-107.92,21.28,-241.68
4189.6954,310.307,-185.013,961.482,-2528.75,-6203.75,0.0,-107.92,13.68,-255.36
4189.7454,317.505,-194.407,961.787,-2388.75,-7840.0,1435.0,-97.28,12.16,-266.0
4189.7954,327.692,-192.089,962.824,-997.5,-6405.0,1172.5,-114.0,-3.04,-249.28
4189.8454,323.3,-188.246,956.358,-3281.25,-7218.75,140.0,-106.4,7.6,-247.76
4189.8954,321.958,-203.496,964.593,-2353.75,-6763.75,-778.75,-109.44,30.4,-261.44
4189.9454,324.398,-196.237,955.992,-1627.5,-7568.75,-1338.75,-110.96,12.16,-256.88
4189.9954,333.121,-194.407,955.809,-1995.0,-7385.0,-2170.0,-101.84,16.72,-246.24
4190.0454,340.441,-189.161,956.907,-1365.0,-6833.75,-3290.0,-101.84,1.52,-241.68
4190.0954,328.668,-174.277,952.576,-5547.5,-6518.75,-4987.5,-107.92,16.72,-267.52
4190.1454,336.232,-196.786,954.406,-3036.25,-6728.75,-2318.75,-98.8,10.64,-261.44
4190.1956,337.574,-178.73,956.663,-3640.0,-6440.0,-1295.0,-100.32,18.24,-253.84
4190.2454,342.881,-219.539,959.591,-3368.75,-7507.5,-402.5,-114.0,4.56,-246.24
4190.2954,346.541,-183.427,951.234,-1531.25,-6203.75,218.75,-107.92,6.08,-252.32
4190.3454,343.674,-187.758,950.075,-3867.5,-7463.75,-1548.75,-109.44,28.88,-256.88
4190.3954,355.569,-193.431,945.866,-4217.5,-8181.25,-2415.0,-118.56,15.2,-234.08
4190.4454,359.107,-198.128,938.241,-5477.5,-6816.25,-1172.5,-110.96,16.72,-246.24
4190.4954,360.327,-203.801,943.304,-3071.25,-8513.75,-1505.0,-109.44,3.04,-241.68
4190.5454,362.218,-220.515,943.487,-5258.75,-5950.0,-245.0,-118.56,4.56,-231.04
4190.5954,348.493,-230.824,944.585,-2765.0,-7446.25,297.5,-107.92,12.16,-252.32
4190.6454,373.747,-209.535,939.705,2065.0,-9406.25,1181.25,-118.56,3.04,-241.68
4190.6954,383.812,-198.006,943.06,857.5,-5337.5,586.25,-118.56,0.0,-243.2
4190.7454,365.451,-185.135,943.182,1557.5,-4305.0,-516.25,-123.12,31.92,-232.56
4190.7954,354.166,-185.867,948.062,26.25,-6483.75,3167.5,-112.48,3.04,-243.2
4190.8454,371.124,-185.867,951.783,542.5,-5180.0,3727.5,-115.52,6.08,-244.72
4190.8954,355.325,-169.702,947.94,-3885.0,-6545.0,1435.0,-123.12,9.12,-241.68
4190.9454,364.536,-193.98,942.267,-6265.0,-8732.5,1006.25,-109.44,9.12,-237.12
4190.9954,382.043,-215.208,936.777,-2056.25,-5967.5,2896.25,-130.72,15.2,-234.08
4191.0454,372.466,-199.897,931.165,-3132.5,-6991.25,1925.0,-117.04,22.8,-249.28
4191.0954,388.997,-207.278,943.914,-3246.25,-5635.0,1190.0,-109.44,21.28,-238.64
4191.1454,358.558,-210.633,936.838,-3780.0,-4191.25,2835.0,-109.44,9.12,-240.16
4191.1954,390.278,-227.652,936.777,-4051.25,-6781.25,1268.75,-118.56,16.72,-228.0
4191.2454,383.019,-224.419,928.359,-4173.75,-3972.5,-962.5,-109.44,13.68,-235.6
4191.2954,378.383,-238.327,929.274,516.25,-3753.75,-3298.75,-115.52,10.64,-224.96
4191.3454,390.766,-217.892,934.337,2747.5,-1487.5,-2878.75,-112.48,13.68,-241.68
4191.3954,360.876,-195.139,952.332,5643.75,-1443.75,-3228.75,-115.52,21.28,-238.64
4191.4454,364.658,-158.173,946.72,2555.0,-4226.25,-17.5,-109.44,19.76,-237.12
4191.4954,374.723,-170.617,951.173,1435.0,-4340.0,2896.25,-103.36,-4.56,-250.8
4191.5454,357.704,-177.51,942.633,-2021.25,-5153.75,2100.0,-133.76,10.64,-246.24
4191.5954,379.725,-188.795,934.642,-1881.25,-6685.0,1006.25,-112.48,13.68,-231.04
4191.6454,389.668,-207.217,958.188,-271.25,-3815.0,2301.25,-114.0,16.72,-244.72
4191.6954,334.89,-200.324,944.768,-1216.25,-5136.25,3001.25,-120.08,15.2,-243.2
4191.7454,371.795,-200.019,940.254,-148.75,-7822.5,481.25,-109.44,22.8,-229.52
4191.7954,386.252,-182.817,947.391,-1408.75,-3316.25,-297.5,-110.96,3.04,-228.0
4191.8454,368.013,-208.132,944.219,376.25,-4663.75,1793.75,-117.04,15.2,-244.72
4191.8954,387.594,-161.65,933.971,-1172.5,-4033.75,726.25,-114.0,9.12,-241.68
4191.9454,373.808,-204.411,952.027,-2126.25,-612.5,-1513.75,-115.52,4.56,-246.24
4191.9954,353.129,-196.115,940.864,-5442.5,-1286.25,-1627.5,-110.96,7.6,-244.72
4192.0454,377.468,-173.362,945.134,988.75,-1863.75,-2353.75,-109.44,7.6,-238.64
4192.0954,352.946,-194.468,954.162,-131.25,-1645.0,-568.75,-123.12,12.16,-238.64
4192.1454,357.582,-173.789,950.99,-770.0,-1960.0,542.5,-126.16,9.12,-235.6
4192.1954,359.595,-184.403,946.293,2178.75,-2625.0,-70.0,-104.88,-3.04,-246.24
4192.2454,353.312,-158.6,951.722,-3097.5,-665.0,647.5,-109.44,13.68,-258.4
4192.2954,349.652,-189.71,948.428,-1225.0,-3097.5,1312.5,-121.6,-6.08,-247.76
4192.3454,365.329,-203.74,949.343,-3018.75,-2327.5,2861.25,-109.44,9.12,-234.08
4192.3954,358.07,-196.176,949.465,166.25,507.5,2178.75,-100.32,9.12,-249.28
4192.4454,327.692,-193.614,961.726,-2800.0,-673.75,1417.5,-117.04,10.64,-246.24
4192.4954,332.999,-196.908,956.602,280.0,-1977.5,-201.25,-101.84,18.24,-255.36
4192.5454,337.513,-180.56,957.578,122.5,-1050.0,385.0,-106.4,9.12,-244.72
4192.5954,326.045,-182.268,959.103,-770.0,-2537.5,2257.5,-106.4,9.12,-262.96
4192.6454,338.245,-185.318,961.604,-595.0,-2318.75,2537.5,-109.44,0.0,-249.28
4192.6954,315.797,-180.743,960.75,-2213.75,-2345.0,1837.5,-91.2,15.2,-237.12
4192.7454,331.901,-193.858,957.578,-1295.0,-3500.0,1085.0,-107.92,6.08,-238.64
4192.7954,330.864,-185.44,955.626,-787.5,-2406.25,1461.25,-109.44,19.76,-246.24
4192.8454,320.677,-182.939,962.58,-1592.5,-2266.25,1662.5,-101.84,12.16,-255.36
4192.8954,322.69,-190.564,963.312,-2415.0,-1968.75,2021.25,-115.52,4.56,-259.92
4192.9454,301.584,-190.381,966.118,-568.75,-2222.5,2231.25,-104.88,18.24,-264.48
4192.9954,311.222,-184.281,963.617,-2721.25,-4375.0,1163.75,-117.04,22.8,-250.8
4193.0454,315.004,-199.897,965.935,-3237.5,-4252.5,1120.0,-110.96,19.76,-258.4
4193.0954,308.416,-192.211,963.19,183.75,-3570.0,971.25,-100.32,-9.12,-255.36
4193.1454,306.281,-182.268,964.837,-2493.75,-4200.0,332.5,-94.24,25.84,-256.88
4193.1954,310.307,-191.296,965.63,-2563.75,-4637.5,-323.75,-92.72,7.6,-262.96
4193.2454,306.037,-194.346,964.593,-1163.75,-4698.75,673.75,-89.68,6.08,-253.84
4193.2954,309.697,-186.294,963.373,-2038.75,-5915.0,1487.5,-97.28,12.16,-249.28
4193.3454,319.579,-189.893,960.994,-1575.0,-5906.25,761.25,-107.92,10.64,-261.44
4193.3955,313.662,-188.49,958.188,-2178.75,-5897.5,1137.5,-98.8,9.12,-261.44
4193.4454,326.899,-197.579,957.456,-1706.25,-6090.0,1058.75,-103.36,25.84,-250.8
4193.4954,323.361,-193.736,955.077,-971.25,-3841.25,-245.0,-110.96,7.6,-259.92
4193.5454,320.616,-190.015,958.432,-1750.0,-3762.5,70.0,-100.32,15.2,-262.96
4193.5954,317.81,-191.906,960.506,-1583.75,-3080.0,1050.0,-109.44,13.68,-256.88
4193.6454,300.242,-188.551,965.02,-918.75,-3998.75,971.25,-97.28,4.56,-253.84
4193.6954,308.66,-183.549,968.253,-2721.25,-5705.0,455.0,-98.8,22.8,-269.04
4193.7454,319.823,-206.119,963.373,-2800.0,-5530.0,1260.0,-103.36,27.36,-267.52
4193.7954,319.701,-206.912,963.678,665.0,-4768.75,717.5,-95.76,16.72,-262.96
4193.8454,309.148,-178.73,959.774,-1960.0,-4637.5,175.0,-100.32,18.24,-253.84
4193.8954,315.37,-196.054,959.896,-2170.0,-5512.5,831.25,-86.64,25.84,-261.44
4193.9454,317.688,-200.324,959.957,-1277.5,-4987.5,1592.5,-107.92,22.8,-252.32
4193.9954,315.126,-192.15,962.702,-2100.0,-5573.75,1303.75,-114.0,28.88,-253.84
4194.0454,323.056,-200.568,961.665,-1163.75,-4830.0,428.75,-77.52,16.72,-244.72
4194.0954,316.651,-190.625,961.116,-1505.0,-5188.75,402.5,-109.44,-6.08,-252.32
4194.1454,324.581,-202.398,956.419,-1330.0,-5075.0,-17.5,-94.24,16.72,-262.96
4194.1954,324.093,-191.784,957.7,-227.5,-3823.75,-420.0,-106.4,25.84,-250.8
4194.2454,316.712,-183.0,962.092,-1706.25,-4401.25,-8.75,-109.44,9.12,-256.88
4194.2954,311.161,-198.189,966.179,-1855.0,-3465.0,1391.25,-89.68,3.04,-255.36
4194.3454,304.268,-192.638,963.739,-1050.0,-4567.5,2003.75,-101.84,13.68,-253.84
4194.3954,318.786,-189.283,964.837,-2686.25,-5302.5,840.0,-92.72,6.08,-253.84
4194.4454,314.333,-199.47,958.981,-2625.0,-5328.75,945.0,-109.44,18.24,-247.76
4194.4954,328.973,-205.936,957.883,1146.25,-4226.25,192.5,-83.6,25.84,-261.44
4194.5454,307.623,-182.512,961.726,-2327.5,-4156.25,-70.0,-106.4,13.68,-250.8
4194.5954,310.368,-196.298,964.044,-2091.25,-5276.25,26.25,-98.8,15.2,-237.12
4194.6454,320.494,-198.921,958.371,-1540.0,-4305.0,1671.25,-98.8,19.76,-259.92
4194.6954,320.555,-195.993,959.774,-2047.5,-5442.5,1548.75,-109.44,9.12,-258.4
4194.7454,327.997,-199.592,958.005,-1216.25,-3920.0,262.5,-117.04,21.28,-244.72
4194.7954,316.163,-195.688,957.212,-1977.5,-3972.5,-210.0,-95.76,21.28,-256.88
4194.8454,318.664,-198.616,959.408,-1137.5,-3972.5,-743.75,-109.44,9.12,-243.2
4194.8954,314.882,-177.388,965.203,-306.25,-3097.5,-1137.5,-100.32,21.28,-255.36
4194.9454,323.117,-181.292,962.58,-2458.75,-4436.25,-271.25,-112.48,15.2,-273.6
4194.9954,318.969,-179.889,961.299,-2896.25,-2878.75,813.75,-101.84,4.56,-253.84
4195.0454,300.913,-204.289,964.715,-1198.75,-4296.25,4558.75,-82.08,12.16,-256.88
4195.0954,306.891,-196.542,963.312,-2931.25,-3421.25,4541.25,-92.72,15.2,-259.92
4195.1454,296.277,-207.522,966.484,-3990.0,-3745.0,-1557.5,-101.84,22.8,-259.92
4195.1954,310.429,-233.63,963.739,-1303.75,-4838.75,-411.25,-97.28,18.24,-259.92
4195.2454,311.649,-187.453,963.8,2441.25,-3876.25,0.0,-89.68,21.28,-241.68
4195.2954,289.018,-191.723,969.534,-4987.5,-5722.5,2038.75,-107.92,21.28,-244.72
4195.3454,321.226,-213.744,961.116,-1190.0,-5066.25,2572.5,-115.52,15.2,-253.84
4195.3954,298.595,-206.973,958.554,-1863.75,-4348.75,1461.25,-95.76,30.4,-256.88
4195.4454,314.516,-207.766,963.495,-1382.5,-5687.5,-1522.5,-91.2,27.36,-246.24
4195.4954,307.806,-198.677,965.569,-1417.5,-5136.25,-490.0,-104.88,18.24,-267.52
4195.5454,306.464,-204.289,961.055,-1566.25,-6160.0,341.25,-85.12,21.28,-253.84
4195.5954,320.86,-205.753,957.639,-980.0,-6973.75,70.0,-98.8,12.16,-249.28
4195.6454,322.995,-199.409,954.589,-1470.0,-5066.25,-682.5,-91.2,7.6,-264.48
4195.6954,311.283,-206.485,956.846,-1163.75,-4952.5,-647.5,-100.32,31.92,-253.84
4195.7454,313.052,-203.801,960.567,-761.25,-5136.25,-262.5,-95.76,4.56,-247.76
4195.7954,305.61,-192.882,965.813,-1251.25,-5250.0,-140.0,-101.84,15.2,-241.68
4195.8454,308.599,-200.69,960.994,-2467.5,-6938.75,192.5,-98.8,15.2,-250.8
4195.8954,323.605,-217.587,963.373,-1225.0,-7455.0,96.25,-121.6,13.68,-247.76
4195.9454,322.69,-179.096,960.201,-35.0,-3447.5,-2292.5,-110.96,18.24,-249.28
4195.9954,300.425,-188.856,964.715,-2073.75,-6090.0,-1767.5,-91.2,15.2,-241.68
4196.0454,322.324,-196.908,960.323,507.5,-7227.5,1505.0,-98.8,18.24,-249.28
4196.0954,299.144,-188.917,960.811,1443.75,-5451.25,2931.25,-114.0,15.2,-256.88
4196.1454,312.503,-188.063,967.399,70.0,-7306.25,2030.0,-91.2,12.16,-255.36
4196.1954,310.307,-193.736,969.29,875.0,-8058.75,481.25,-98.8,18.24,-252.32
4196.2454,340.929,-186.294,959.896,-1680.0,-10246.25,682.5,-104.88,12.16,-246.24
4196.2954,348.493,-196.237,949.282,-918.75,-11103.75,2686.25,-95.76,7.6,-253.84
4196.3454,369.843,-183.793,942.633,-1470.0,-11795.0,1461.25,-106.4,9.12,-240.16
4196.3954,383.751,-191.479,928.237,-4418.75,-8592.5,-2336.25,-112.48,4.56,-247.76
4196.4454,361.669,-190.503,941.779,-4628.75,-1863.75,-3578.75,-100.32,13.68,-261.44
4196.4954,341.844,-200.568,957.883,-113.75,-1898.75,1610.0,-109.44,10.64,-243.2
4196.5454,330.986,-184.159,953.613,-1181.25,-1750.0,2537.5,-126.16,6.08,-250.8
4196.5955,351.299,-217.343,964.227,901.25,-3255.0,1067.5,-98.8,10.64,-250.8
4196.6454,343.735,-175.131,952.149,1513.75,551.25,542.5,-103.36,4.56,-246.24
4196.6954,319.274,-186.355,965.264,-638.75,-1233.75,-1583.75,-106.4,18.24,-253.84
4196.7454,326.228,-188.246,955.077,-3027.5,-3106.25,-1076.25,-112.48,13.68,-250.8
4196.7954,304.39,-182.39,958.066,-1023.75,-3946.25,-1408.75,-104.88,-6.08,-247.76
4196.8454,340.807,-179.584,949.831,-5346.25,-3561.25,-883.75,-106.4,15.2,-262.96
4196.8954,340.685,-202.886,964.959,-2038.75,-3438.75,-1618.75,-97.28,30.4,-238.64
4196.9454,311.771,-187.514,962.275,-4103.75,-3351.25,105.0,-92.72,28.88,-232.56
4196.9954,328.79,-211.975,964.227,-813.75,-7446.25,262.5,-115.52,6.08,-238.64
4197.0454,351.787,-194.285,961.909,1146.25,-3605.0,367.5,-92.72,15.2,-258.4
4197.0954,336.11,-167.933,954.04,2633.75,-5950.0,2765.0,-110.96,-6.08,-240.16
4197.1454,343.186,-182.085,957.639,-2135.0,-5985.0,4585.0,-114.0,15.2,-252.32
4197.1954,326.167,-186.965,952.393,-3220.0,-4943.75,4585.0,-98.8,18.24,-249.28
4197.2454,319.274,-211.548,965.081,-3517.5,-11418.75,61.25,-115.52,15.2,-258.4
4197.2954,312.625,-201.727,961.116,-3535.0,-11838.75,-1802.5,-109.44,27.36,-246.24
4197.3454,362.34,-227.103,949.282,-1863.75,-11235.0,848.75,-94.24,18.24,-244.72
4197.3954,344.223,-202.642,944.524,691.25,-7980.0,1400.0,-110.96,4.56,-249.28
4197.4454,346.663,-207.949,953.857,-761.25,-7341.25,1863.75,-118.56,13.68,-234.08
4197.4954,362.523,-206.668,946.903,428.75,-3762.5,-1286.25,-107.92,10.64,-261.44
4197.5454,353.19,-197.03,946.781,-901.25,-3823.75,-2686.25,-104.88,7.6,-246.24
4197.5954,356.057,-198.555,947.757,-1032.5,-3211.25,-2362.5,-124.64,27.36,-246.24
4197.6454,344.162,-197.762,947.33,761.25,-3622.5,-997.5,-103.36,19.76,-237.12
4197.6954,350.445,-193.797,948.977,2528.75,-4042.5,-612.5,-118.56,18.24,-231.04
4197.7454,355.874,-181.536,951.661,1452.5,-3185.0,-1137.5,-106.4,15.2,-249.28
4197.7954,347.883,-160.735,954.589,-525.0,-840.0,-1837.5,-103.36,7.6,-250.8
4197.8454,338.672,-172.63,951.905,-3281.25,-2826.25,-1041.25,-114.0,4.56,-252.32
4197.8954,358.009,-183.793,950.807,-1207.5,-1120.0,1233.75,-118.56,19.76,-244.72
4197.9454,344.711,-186.355,957.151,-901.25,1268.75,2021.25,-104.88,10.64,-231.04
4197.9954,342.393,-179.34,948.611,-2143.75,-4742.5,1006.25,-118.56,25.84,-259.92
4198.0454,339.343,-195.078,963.19,-1478.75,-2738.75,-647.5,-100.32,18.24,-246.24
4198.0954,326.899,-176.717,960.201,-945.0,-2808.75,-735.0,-104.88,12.16,-255.36
4198.1454,329.827,-179.95,957.944,-2423.75,-3990.0,813.75,-100.32,7.6,-252.32
4198.1954,337.025,-190.564,958.066,-1627.5,-2913.75,1338.75,-92.72,15.2,-262.96
4198.2454,318.725,-183.0,955.87,-1820.0,-2712.5,1041.25,-112.48,28.88,-252.32
4198.2954,339.526,-195.139,959.652,-1461.25,-5092.5,227.5,-112.48,16.72,-247.76
4198.3454,332.633,-187.026,959.896,-1531.25,-4095.0,446.25,-109.44,16.72,-250.8
4198.3954,332.267,-191.54,956.358,-2187.5,-5127.5,472.5,-92.72,16.72,-261.44
4198.4454,338.184,-186.538,955.382,-918.75,-4366.25,-280.0,-114.0,-3.04,-259.92
4198.4954,334.402,-179.523,957.578,-1058.75,-3403.75,-726.25,-112.48,16.72,-253.84
4198.5454,325.801,-182.085,960.445,-1732.5,-4217.5,-17.5,-92.72,0.0,-272.08
4198.5954,325.252,-186.172,962.397,-1356.25,-4340.0,1128.75,-109.44,-6.08,-246.24
4198.6454,326.533,-170.434,960.628,-1111.25,-5171.25,901.25,-104.88,15.2,-253.84
4198.6954,330.62,-183.549,956.419,-3045.0,-6037.5,1111.25,-109.44,12.16,-241.68
4198.7454,345.138,-202.215,959.713,-2065.0,-5346.25,1190.0,-110.96,-3.04,-246.24
4198.7954,328.424,-167.079,956.053,-822.5,-3885.0,437.5,-92.72,27.36,-247.76
4198.8454,325.496,-175.314,955.443,-3045.0,-4768.75,1286.25,-114.0,13.68,-256.88
4198.8954,331.291,-189.344,958.554,-2091.25,-4637.5,2091.25,-107.92,6.08,-266.0
4198.9454,324.886,-187.697,956.175,-1680.0,-4681.25,1802.5,-104.88,7.6,-250.8
4198.9954,334.402,-196.481,957.761,-1855.0,-4996.25,1190.0,-94.24,9.12,-249.28
4199.0454,331.657,-187.819,957.883,-1653.75,-3885.0,682.5,-115.52,18.24,-241.68
4199.0954,327.326,-196.725,957.395,-1881.25,-5827.5,630.0,-109.44,0.0,-255.36
4199.1454,338.611,-191.235,957.09,-936.25,-5197.5,253.75,-95.76,18.24,-250.8
4199.1954,326.655,-179.462,955.626,-1627.5,-4130.0,-201.25,-95.76,0.0,-252.32
4199.2454,331.047,-184.22,957.883,-2266.25,-5328.75,437.5,-118.56,22.8,-249.28
4199.2954,327.387,-192.333,962.153,-1793.75,-3972.5,1592.5,-98.8,24.32,-246.24
4199.3454,322.019,-181.719,957.883,-1513.75,-5687.5,1592.5,-95.76,16.72,-250.8
4199.3954,335.744,-185.074,959.286,-3071.25,-5766.25,1093.75,-104.88,-3.04,-255.36
4199.4454,340.563,-208.864,954.162,-1802.5,-4961.25,1146.25,-120.08,7.6,-258.4
4199.4954,334.951,-186.111,955.443,595.0,-4173.75,8.75,-97.28,4.56,-252.32
4199.5454,325.801,-184.464,958.798,-3001.25,-4567.5,752.5,-109.44,12.16,-244.72
4199.5954,329.705,-194.468,958.493,-1723.75,-4961.25,2345.0,-101.84,16.72,-255.36
4199.6454,328.241,-196.725,957.639,-1111.25,-4392.5,1785.0,-97.28,13.68,-247.76
4199.6954,337.025,-197.335,954.467,-1881.25,-5127.5,411.25,-117.04,7.6,-246.24
4199.7454,326.167,-186.599,957.7,-1741.25,-3946.25,61.25,-101.84,22.8,-258.4
4199.7955,324.032,-195.322,957.761,-2003.75,-5495.0,358.75,-106.4,21.28,-247.76
4199.8454,335.988,-196.298,957.334,-796.25,-4156.25,43.75,-107.92,-7.6,-253.84
4199.8954,329.4,-185.013,954.711,-805.0,-3858.75,-385.0,-100.32,19.76,-249.28
4199.9454,331.23,-183.732,956.846,-2380.0,-3972.5,140.0,-106.4,13.68,-247.76
4199.9954,325.069,-191.967,958.554,-2038.75,-3018.75,1023.75,-110.96,6.08,-244.72
4200.0454,314.882,-194.651,961.238,-1198.75,-4366.25,1531.25,-100.32,3.04,-259.92
4200.0954,332.694,-189.283,959.53,-2091.25,-4908.75,1015.0,-101.84,6.08,-250.8
4200.1454,325.923,-195.566,956.175,-2546.25,-4795.0,700.0,-109.44,9.12,-255.36
4200.1954,336.842,-198.86,955.26,848.75,-3823.75,-892.5,-109.44,9.12,-256.88
4200.2454,318.054,-179.645,961.543,-2686.25,-3386.25,358.75,-112.48,1.52,-246.24
4200.2954,314.821,-192.76,961.665,-1776.25,-4882.5,1592.5,-100.32,-6.08,-252.32
4200.3454,329.034,-200.141,960.262,-1338.75,-4856.25,1715.0,-123.12,10.64,-258.4
4200.3954,328.424,-197.274,954.65,-1627.5,-5565.0,323.75,-112.48,12.16,-237.12
4200.4454,334.402,-192.882,956.846,-1452.5,-4418.75,-140.0,-103.36,24.32,-259.92
4200.4954,321.287,-193.065,958.127,-1846.25,-4978.75,43.75,-91.2,1.52,-252.32
4200.5454,334.219,-198.311,957.273,-875.0,-5048.75,-78.75,-107.92,15.2,-247.76
4200.5954,321.958,-180.255,956.114,-971.25,-3543.75,-262.5,-97.28,13.68,-249.28
4200.6454,330.315,-183.305,959.957,-2003.75,-4270.0,586.25,-109.44,21.28,-259.92
4200.6954,325.801,-188.246,963.617,-2108.75,-3788.75,1356.25,-100.32,4.56,-250.8
4200.7454,316.529,-197.884,960.323,-1330.0,-4838.75,1750.0,-100.32,6.08,-252.32
4200.7954,326.594,-189.588,955.443,-1137.5,-5337.5,1251.25,-91.2,-4.56,-256.88
4200.8454,327.448,-192.516,956.48,-2143.75,-4261.25,236.25,-103.36,21.28,-241.68
4200.8954,338.306,-212.646,958.615,-507.5,-3718.75,-210.0,-98.8,21.28,-264.48
4200.9454,324.642,-177.083,957.944,-113.75,-2791.25,-192.5,-98.8,7.6,-241.68
4200.9954,314.333,-188.856,963.495,-2327.5,-4908.75,1128.75,-95.76,3.04,-255.36
4201.0454,327.57,-194.102,959.774,-1837.5,-4847.5,2353.75,-115.52,27.36,-255.36
4201.0954,314.699,-196.298,960.689,-1128.75,-4541.25,1216.25,-86.64,16.72,-267.52
4201.1454,335.317,-195.993,956.907,-1391.25,-4987.5,-157.5,-101.84,-3.04,-250.8
4201.1954,321.409,-191.174,964.532,-1706.25,-4095.0,-148.75,-106.4,10.64,-252.32
4201.2454,320.982,-199.958,957.517,-1347.5,-5433.75,411.25,-92.72,3.04,-246.24
4201.2954,331.291,-186.233,956.724,-446.25,-4042.5,26.25,-109.44,7.6,-247.76
4201.3455,317.749,-181.475,957.7,-1365.0,-3753.75,-175.0,-103.36,7.6,-250.8
4201.3954,322.995,-189.466,961.604,-2152.5,-4375.0,1015.0,-88.16,21.28,-243.2
4201.4454,320.555,-193.919,960.567,-2003.75,-4200.0,1583.75,-110.96,6.08,-252.32
4201.4954,317.749,-195.688,960.445,-708.75,-5372.5,1408.75,-101.84,28.88,-249.28
4201.5454,326.472,-189.588,957.822,-2441.25,-4436.25,770.0,-94.24,10.64,-256.88
4201.5954,324.52,-200.69,955.138,-2966.25,-5302.5,498.75,-98.8,1.52,-240.16
4201.6454,329.339,-192.211,960.689,1312.5,-2572.5,-1137.5,-106.4,15.2,-252.32
4201.6954,309.514,-172.63,960.994,-2117.5,-3290.0,140.0,-83.6,10.64,-244.72
4201.7454,316.407,-195.566,961.482,-1653.75,-4847.5,2056.25,-89.68,22.8,-244.72
4201.7954,316.712,-200.385,960.262,-1295.0,-4427.5,1811.25,-89.68,16.72,-252.32
4201.8454,317.81,-192.455,960.933,-1828.75,-5346.25,516.25,-103.36,19.76,-255.36
4201.8954,317.81,-192.455,963.129,-1408.75,-4383.75,70.0,-114.0,0.0,-258.4
4201.9454,317.261,-195.81,958.371,-1662.5,-5810.0,35.0,-114.0,3.04,-237.12
4201.9954,331.047,-193.919,958.188,-945.0,-5433.75,-236.25,-98.8,7.6,-247.76
4202.0454,317.383,-184.586,959.896,-1015.0,-4628.75,262.5,-109.44,18.24,-244.72
4202.0954,320.25,-183.854,958.676,-1846.25,-4873.75,481.25,-115.52,13.68,-258.4
4202.1454,322.202,-192.516,964.349,-2493.75,-4200.0,1330.0,-97.28,4.56,-255.36
4202.1954,317.871,-200.934,958.005,-1050.0,-4900.0,1898.75,-115.52,27.36,-250.8
4202.2454,322.629,-192.272,958.981,-953.75,-4970.0,1023.75,-97.28,15.2,-262.96
4202.2954,325.252,-192.211,955.565,-2537.5,-4445.0,52.5,-97.28,13.68,-267.52
4202.3454,325.862,-211.304,960.506,-2021.25,-4917.5,420.0,-112.48,10.64,-253.84
4202.3954,318.908,-174.216,956.419,-227.5,-2738.75,-490.0,-107.92,28.88,-252.32
4202.4454,312.869,-193.858,962.885,-2450.0,-4550.0,1286.25,-106.4,7.6,-259.92
4202.4954,316.346,-197.884,962.397,-1776.25,-4812.5,1986.25,-109.44,15.2,-261.44
4202.5454,314.638,-195.139,961.299,-1400.0,-4628.75,962.5,-97.28,22.8,-247.76
4202.5954,326.106,-195.627,960.75,-1601.25,-4602.5,-210.0,-110.96,9.12,-250.8
4202.6454,315.248,-190.32,962.702,-1452.5,-3841.25,437.5,-92.72,12.16,-261.44
4202.6954,320.311,-197.823,960.811,-1251.25,-5915.0,-157.5,-94.24,15.2,-258.4
4202.7454,327.936,-192.089,958.554,-1198.75,-3745.0,-796.25,-100.32,7.6,-258.4
4202.7954,316.407,-182.878,959.164,-1207.5,-4173.75,-78.75,-86.64,22.8,-259.92
4202.8454,318.359,-188.49,963.312,-2441.25,-4462.5,726.25,-115.52,1.52,-244.72
4202.8954,318.298,-197.03,959.103,-2222.5,-3920.0,1811.25,-107.92,19.76,-264.48
4202.9454,311.832,-198.555,964.349,-700.0,-4987.5,1933.75,-89.68,27.36,-264.48
4202.9954,317.871,-187.758,962.336,-1890.0,-4830.0,708.75,-103.36,12.16,-249.28
4203.0454,313.845,-198.311,957.151,-2913.75,-4952.5,481.25,-95.76,13.68,-252.32
4203.0954,325.923,-201.727,963.495,1356.25,-3570.0,-770.0,-98.8,13.68,-253.84
4203.1454,306.952,-172.63,961.97,-1977.5,-3132.5,227.5,-106.4,7.6,-262.96
4203.1954,308.965,-200.263,963.739,-1986.25,-5206.25,1890.0,-94.24,22.8,-255.36
4203.2454,316.102,-200.446,960.811,-1417.5,-4523.75,1986.25,-100.32,22.8,-255.36
4203.2954,312.93,-196.603,960.079,-1452.5,-5293.75,665.0,-106.4,10.64,-255.36
4203.3454,316.163,-195.505,960.811,-1548.75,-4077.5,-87.5,-83.6,27.36,-259.92
4203.3954,310.429,-195.688,965.325,-1785.0,-5127.5,201.25,-95.76,12.16,-253.84
4203.4454,324.398,-195.2,958.249,-1032.5,-5320.0,-192.5,-107.92,0.0,-249.28
4203.4954,319.03,-185.501,960.872,-1085.0,-3753.75,26.25,-101.84,4.56,-249.28
4203.5454,308.111,-182.573,960.811,-1881.25,-4418.75,551.25,-109.44,12.16,-253.84
4203.5954,319.274,-194.346,964.471,-2283.75,-4103.75,1321.25,-107.92,13.68,-259.92
4203.6454,308.294,-199.348,962.275,-1697.5,-3797.5,1776.25,-86.64,12.16,-262.96
4203.6954,310.551,-194.956,961.36,-735.0,-4812.5,1146.25,-106.4,10.64,-258.4
4203.7454,316.346,-196.603,964.654,-2371.25,-4471.25,87.5,-101.84,16.72,-249.28
4203.7954,313.967,-202.459,958.615,-2485.0,-4961.25,463.75,-100.32,7.6,-261.44
4203.8454,315.98,-182.451,963.19,385.0,-3360.0,-323.75,-100.32,10.64,-261.44
4203.8954,298.473,-178.974,965.02,-2747.5,-5713.75,1365.0,-109.44,10.64,-250.8
4203.9454,309.209,-198.25,961.482,-1828.75,-5565.0,1846.25,-106.4,19.76,-255.36
4203.9954,307.562,-200.934,961.36,-1295.0,-4375.0,1023.75,-117.04,7.6,-258.4
4204.0454,314.821,-197.884,959.347,-1470.0,-5433.75,560.0,-94.24,16.72,-264.48
4204.0954,311.466,-193.37,962.519,-1968.75,-4182.5,218.75,-86.64,6.08,-255.36
4204.1454,310.246,-201.666,962.519,-1540.0,-6300.0,17.5,-112.48,0.0,-256.88
4204.1954,324.337,-195.017,961.36,-507.5,-5565.0,-455.0,-86.64,15.2,-258.4
4204.2454,308.721,-184.525,962.031,-1688.75,-4900.0,-166.25,-101.84,15.2,-253.84
4204.2954,311.893,-187.758,963.922,-2441.25,-6203.75,691.25,-94.24,1.52,-272.08
4204.3454,316.346,-196.359,964.898,-1898.75,-5503.75,1452.5,-104.88,30.4,-253.84
4204.3954,305.854,-206.363,962.702,-1706.25,-6265.0,1330.0,-89.68,25.84,-259.92
4204.4454,314.333,-198.555,962.092,-1102.5,-7236.25,-498.75,-109.44,7.6,-246.24
4204.4954,315.248,-197.945,957.578,-2703.75,-7927.5,-1890.0,-106.4,18.24,-256.88
4204.5455,330.132,-214.903,956.785,-1855.0,-7875.0,-1277.5,-92.72,7.6,-249.28
4204.5954,317.81,-176.961,959.103,-691.25,-6370.0,-1776.25,-101.84,4.56,-243.2
4204.6454,313.296,-201.422,959.53,-2065.0,-7437.5,-61.25,-97.28,22.8,-249.28
4204.6954,330.864,-199.287,956.968,-1058.75,-8662.5,437.5,-104.88,9.12,-261.44
4204.7454,334.341,-197.152,956.114,-1242.5,-7078.75,-472.5,-106.4,12.16,-258.4
4204.7954,342.576,-196.176,952.21,-1758.75,-6282.5,-1522.5,-97.28,10.64,-261.44
4204.8454,337.391,-197.335,956.053,-1076.25,-5871.25,-1347.5,-106.4,10.64,-247.76
4204.8954,336.415,-199.226,954.894,-630.0,-6142.5,-1251.25,-103.36,18.24,-253.84
4204.9454,350.018,-190.381,950.685,-148.75,-5145.0,-2047.5,-109.44,21.28,-237.12
4204.9954,339.16,-179.279,956.724,-638.75,-4243.75,-2152.5,-106.4,-3.04,-258.4
4205.0454,341.539,-182.695,956.785,-1426.25,-4558.75,-656.25,-97.28,4.56,-258.4
4205.0954,336.293,-182.268,956.907,-1846.25,-3832.5,227.5,-100.32,-4.56,-258.4
4205.1454,332.45,-185.501,957.944,-350.0,-4681.25,638.75,-123.12,4.56,-237.12
4205.1954,335.256,-178.669,955.443,-1855.0,-4978.75,813.75,-114.0,21.28,-253.84
4205.2454,337.94,-188.063,953.979,-2310.0,-5188.75,857.5,-94.24,9.12,-250.8
4205.2954,341.722,-180.438,954.528,437.5,-4051.25,297.5,-100.32,1.52,-247.76
4205.3454,327.57,-170.678,955.626,-2336.25,-3097.5,1268.75,-86.64,7.6,-247.76
4205.3954,331.596,-189.588,957.456,-2012.5,-4987.5,1723.75,-101.84,-4.56,-255.36
4205.4454,332.694,-188.185,955.565,-1758.75,-3885.0,2152.5,-123.12,13.68,-240.16
4205.4954,328.363,-193.187,961.238,-2161.25,-4856.25,2065.0,-109.44,10.64,-249.28
4205.5454,335.134,-193.126,958.615,-1601.25,-4462.5,1461.25,-110.96,7.6,-243.2
4205.5954,323.849,-193.431,959.774,-2257.5,-5311.25,1111.25,-115.52,7.6,-256.88
4205.6454,343.552,-198.372,956.114,-1128.75,-5696.25,420.0,-100.32,6.08,-246.24
4205.6954,333.792,-186.721,952.088,-945.0,-4961.25,-280.0,-112.48,16.72,-255.36
4205.7454,338.489,-184.098,954.223,-1741.25,-5145.0,402.5,-101.84,22.8,-255.36
4205.7954,339.404,-189.405,957.7,-2178.75,-4698.75,910.0,-103.36,7.6,-253.84
4205.8454,330.864,-195.627,958.798,-1706.25,-4462.5,1268.75,-121.6,15.2,-252.32
4205.8954,339.892,-181.292,956.053,-2100.0,-5433.75,1575.0,-112.48,15.2,-241.68
4205.9454,334.524,-205.631,950.99,-3045.0,-5092.5,1365.0,-109.44,18.24,-234.08
4205.9954,350.628,-212.463,954.894,113.75,-5092.5,831.25,-110.96,12.16,-261.44
4206.0454,326.472,-178.486,954.04,-2441.25,-3132.5,971.25,-110.96,22.8,-250.8
4206.0954,336.415,-193.98,957.761,-2152.5,-4987.5,306.25,-101.84,3.04,-255.36
4206.1454,333.609,-197.396,961.604,-1802.5,-4252.5,1163.75,-118.56,-9.12,-244.72
4206.1955,325.923,-190.503,953.186,-1680.0,-5985.0,1277.5,-106.4,16.72,-261.44
4206.2454,355.935,-195.139,947.147,-1776.25,-5521.25,1137.5,-103.36,19.76,-247.76
4206.2954,338.55,-196.908,952.881,-1513.75,-770.0,1890.0,-91.2,13.68,-235.6
4206.3454,318.725,-195.078,962.519,-1435.0,-5328.75,1295.0,-95.76,12.16,-255.36
4206.3954,328.851,-195.566,965.203,-997.5,-5661.25,113.75,-112.48,25.84,-241.68
4206.4454,323.3,-183.671,958.92,-1566.25,-5941.25,-385.0,-101.84,10.64,-259.92
4206.4954,338.611,-188.063,953.552,-2432.5,-6501.25,288.75,-106.4,19.76,-264.48
4206.5454,338.062,-197.213,953.552,-1863.75,-4698.75,1645.0,-103.36,4.56,-255.36
4206.5954,334.097,-193.065,952.454,-997.5,-4488.75,1181.25,-109.44,16.72,-249.28
4206.6454,338.001,-192.577,953.979,-2721.25,-4173.75,595.0,-101.84,21.28,-247.76
4206.6954,344.467,-208.315,950.746,-2327.5,-4217.5,866.25,-109.44,13.68,-259.92
4206.7454,341.539,-201.849,955.382,647.5,-2686.25,157.5,-103.36,21.28,-253.84
4206.7954,325.069,-188.307,958.798,-2030.0,-3360.0,988.75,-94.24,22.8,-256.88
4206.8454,332.389,-196.908,955.748,-1802.5,-4725.0,1225.0,-95.76,18.24,-247.76
4206.8954,334.768,-200.507,955.565,-1338.75,-3263.75,1233.75,-100.32,15.2,-250.8
4206.9454,334.097,-198.25,951.966,-1382.5,-3806.25,743.75,-103.36,15.2,-272.08
4206.9954,319.762,-194.224,964.349,-1181.25,-3150.0,385.0,-106.4,6.08,-255.36
4207.0454,313.784,-191.052,962.336,-2467.5,-5171.25,148.75,-103.36,13.68,-247.76
4207.0954,323.178,-201.422,962.092,-945.0,-7481.25,43.75,-109.44,13.68,-252.32
4207.1454,330.498,-190.381,956.419,-560.0,-6580.0,0.0,-103.36,1.52,-247.76
4207.1954,338.916,-188.124,950.868,-2590.0,-6020.0,96.25,-104.88,9.12,-253.84
4207.2454,339.343,-199.165,956.48,-1793.75,-4217.5,1487.5,-101.84,12.16,-258.4
4207.2954,329.949,-200.263,957.334,-1172.5,-4418.75,1417.5,-112.48,4.56,-253.84
4207.3454,334.341,-189.954,955.748,-2126.25,-4821.25,691.25,-101.84,16.72,-243.2
4207.3954,336.354,-197.091,950.929,-2537.5,-4908.75,743.75,-98.8,22.8,-262.96
4207.4454,353.312,-215.818,954.772,-428.75,-3832.5,656.25,-103.36,9.12,-249.28
4207.4954,324.398,-179.828,953.735,-1365.0,-2205.0,901.25,-100.32,10.64,-241.68
4207.5454,322.08,-195.749,956.541,-2065.0,-3333.75,1330.0,-98.8,0.0,-258.4
4207.5954,325.313,-201.056,961.421,-1793.75,-3640.0,1916.25,-98.8,18.24,-244.72
4207.6454,315.797,-194.224,958.432,-1487.5,-4532.5,1102.5,-92.72,18.24,-249.28
4207.6954,332.755,-198.738,955.565,-1793.75,-4620.0,770.0,-103.36,22.8,-247.76
4207.7454,314.028,-194.895,962.702,-1793.75,-4401.25,446.25,-104.88,27.36,-259.92
4207.7954,313.235,-199.775,963.19,-2038.75,-5818.75,-43.75,-92.72,15.2,-243.2
4207.8455,324.947,-193.675,961.787,-1277.5,-6457.5,-105.0,-114.0,25.84,-255.36
4207.8954,323.605,-188.124,954.345,-1863.75,-6868.75,288.75,-106.4,9.12,-258.4
4207.9454,335.805,-193.736,953.979,-2913.75,-6903.75,761.25,-89.68,15.2,-246.24
4207.9954,333.548,-203.801,951.783,-2021.25,-4952.5,1837.5,-112.48,15.2,-252.32
4208.0454,337.147,-204.838,950.563,-271.25,-4515.0,1977.5,-101.84,-3.04,-252.32
4208.0954,334.768,-195.2,954.65,-2467.5,-4480.0,385.0,-89.68,25.84,-261.44
4208.1454,346.968,-213.988,954.223,-2528.75,-4576.25,437.5,-101.84,10.64,-250.8
4208.1954,340.746,-208.925,953.43,1400.0,-3176.25,-341.25,-97.28,22.8,-246.24
4208.2454,325.923,-185.867,953.735,-2686.25,-2826.25,350.0,-100.32,15.2,-238.64
4208.2954,328.668,-202.337,955.748,-1881.25,-4103.75,1286.25,-101.84,10.64,-258.4
4208.3454,325.862,-203.313,955.992,-656.25,-3228.75,1627.5,-97.28,19.76,-250.8
4208.3954,324.764,-198.799,957.09,-2030.0,-4392.5,831.25,-92.72,22.8,-256.88
4208.4454,322.019,-200.263,962.336,-936.25,-4200.0,61.25,-107.92,22.8,-250.8
4208.4954,313.723,-195.322,958.859,-1688.75,-5153.75,-288.75,-97.28,22.8,-267.52
4208.5454,328.363,-200.751,959.652,-761.25,-5433.75,-411.25,-88.16,6.08,-243.2
4208.5954,318.298,-192.028,961.543,-778.75,-5398.75,166.25,-117.04,4.56,-243.2
4208.6454,326.716,-191.906,957.7,-2196.25,-5950.0,350.0,-92.72,12.16,-255.36
4208.6954,327.143,-196.237,955.687,-2327.5,-5652.5,385.0,-92.72,19.76,-246.24
4208.7454,329.461,-204.228,952.271,-1251.25,-5407.5,1303.75,-104.88,12.16,-259.92
4208.7954,332.999,-194.59,954.406,-1697.5,-5048.75,603.75,-106.4,21.28,-249.28
4208.8454,344.162,-198.311,950.319,-2590.0,-4593.75,-96.25,-100.32,13.68,-252.32
4208.8954,340.929,-216.123,953.918,-910.0,-3998.75,-70.0,-104.88,19.76,-247.76
4208.9454,336.598,-188.49,954.406,-1855.0,-2012.5,-175.0,-110.96,28.88,-241.68
4208.9954,317.139,-195.749,959.835,-2616.25,-3998.75,-8.75,-104.88,9.12,-243.2
4209.0454,327.265,-202.093,960.445,-1163.75,-4077.5,936.25,-114.0,16.72,-246.24
4209.0954,318.237,-192.577,956.053,-1277.5,-4095.0,1461.25,-100.32,6.08,-243.2
4209.1454,329.034,-202.398,958.859,-1583.75,-4707.5,726.25,-110.96,12.16,-252.32
4209.1954,313.784,-195.017,962.214,-1566.25,-4865.0,297.5,-98.8,22.8,-259.92
4209.2454,317.2,-196.115,962.641,-1610.0,-5862.5,-498.75,-101.84,22.8,-243.2
4209.2954,327.692,-196.359,960.201,-848.75,-5696.25,-647.5,-107.92,15.2,-252.32
4209.3454,323.178,-187.758,958.31,-743.75,-6378.75,-148.75,-98.8,18.24,-247.76
4209.3954,335.439,-189.1,956.236,-2388.75,-5617.5,166.25,-107.92,30.4,-237.12
4209.4454,329.644,-198.311,955.992,-2056.25,-4637.5,1321.25,-101.84,1.52,-253.84
4209.4954,326.533,-200.995,957.944,-770.0,-4611.25,1356.25,-110.96,21.28,-244.72
4209.5454,337.33,-190.869,955.016,-2607.5,-4978.75,455.0,-115.52,24.32,-259.92
4209.5954,331.535,-202.093,953.491,-2598.75,-4331.25,656.25,-114.0,10.64,-249.28
4209.6454,348.859,-202.947,954.955,297.5,-3981.25,306.25,-92.72,10.64,-258.4
4209.6954,311.893,-189.954,958.371,-1977.5,-3202.5,848.75,-94.24,9.12,-252.32
4209.7454,317.505,-199.47,956.724,-2091.25,-4786.25,708.75,-106.4,21.28,-250.8
4209.7954,335.256,-200.141,960.201,-1881.25,-4313.75,1093.75,-91.2,9.12,-250.8
4209.8454,316.529,-200.568,961.848,-1811.25,-5346.25,1181.25,-100.32,15.2,-246.24
4209.8954,334.402,-204.289,959.896,-1093.75,-5276.25,691.25,-106.4,-3.04,-261.44
4209.9454,313.296,-193.187,966.667,-1881.25,-5941.25,-175.0,-89.68,15.2,-244.72
4209.9954,321.104,-199.775,955.687,-2213.75,-7271.25,236.25,-100.32,22.8,-244.72
4210.0454,340.807,-194.346,952.576,-218.75,-6098.75,1076.25,-127.68,7.6,-249.28
4210.0954,324.459,-188.917,952.82,-2003.75,-5066.25,385.0,-89.68,28.88,-258.4
4210.1454,334.402,-197.213,956.785,-2721.25,-5661.25,236.25,-91.2,16.72,-258.4
4210.1954,335.256,-203.496,954.589,-1995.0,-3517.5,1400.0,-106.4,13.68,-253.84
4210.2454,326.594,-200.751,951.6,-822.5,-4357.5,1452.5,-118.56,15.2,-243.2
4210.2954,336.598,-194.407,955.87,-3053.75,-4287.5,761.25,-118.56,10.64,-273.6
4210.3454,341.295,-214.354,953.552,-1942.5,-4462.5,813.75,-124.64,10.64,-249.28
4210.3954,342.698,-205.326,953.247,813.75,-2406.25,-420.0,-85.12,22.8,-240.16
4210.4454,321.47,-185.562,958.798,-2388.75,-2047.5,-253.75,-100.32,10.64,-253.84
4210.4954,317.017,-199.958,958.31,-2275.0,-3447.5,1347.5,-86.64,22.8,-259.92
4210.5454,325.13,-205.082,962.824,-1233.75,-3578.75,2415.0,-104.88,22.8,-246.24
4210.5954,318.298,-203.008,960.262,-1881.25,-4497.5,1540.0,-103.36,9.12,-259.92
4210.6454,326.594,-207.4,958.737,-1172.5,-3911.25,61.25,-97.28,21.28,-264.48
4210.6954,319.701,-197.03,956.846,-1522.5,-3508.75,-901.25,-107.92,31.92,-226.48
4210.7454,326.594,-206.668,957.761,-1146.25,-3596.25,-901.25,-104.88,13.68,-264.48
4210.7954,324.215,-200.995,958.432,323.75,-2756.25,-367.5,-109.44,10.64,-258.4
4210.8454,312.259,-183.976,962.885,-953.75,-2878.75,-980.0,-100.32,10.64,-253.84
4210.8954,322.629,-192.882,960.14,-2073.75,-3325.0,-735.0,-92.72,18.24,-256.88
4210.9454,310.49,-194.041,960.933,-910.0,-2773.75,1102.5,-103.36,27.36,-253.84
4210.9954,308.233,-192.516,962.641,-1373.75,-3858.75,936.25,-92.72,13.68,-258.4
4211.0455,315.858,-190.137,963.617,-1977.5,-3876.25,586.25,-103.36,-4.56,-255.36
4211.0954,313.601,-204.716,963.251,-2283.75,-4410.0,1356.25,-110.96,21.28,-258.4
4211.1454,319.579,-186.782,959.53,813.75,-1828.75,-175.0,-91.2,22.8,-244.72
4211.1954,291.397,-177.998,969.29,-2511.25,-2423.75,-26.25,-106.4,0.0,-258.4
4211.2454,301.95,-198.677,964.227,-1785.0,-5005.0,1531.25,-100.32,3.04,-259.92
4211.2954,308.721,-197.213,968.497,-1242.5,-4961.25,2056.25,-77.52,16.72,-256.88
4211.3454,299.083,-197.701,965.142,-2441.25,-5468.75,1102.5,-103.36,15.2,-261.44
4211.3954,320.311,-201.544,960.567,-1041.25,-4567.5,78.75,-98.8,34.96,-261.44
4211.4454,303.536,-189.527,964.654,-1566.25,-4392.5,122.5,-100.32,18.24,-269.04
4211.4954,308.111,-203.923,963.068,-1435.0,-5495.0,183.75,-103.36,19.76,-258.4
4211.5454,311.527,-195.993,961.909,-726.25,-5328.75,332.5,-114.0,13.68,-264.48
4211.5954,312.198,-183.366,961.604,-1426.25,-4935.0,-332.5,-91.2,15.2,-253.84
4211.6454,314.15,-199.775,965.386,-2353.75,-4681.25,770.0,-110.96,22.8,-266.0
4211.6954,308.599,-200.019,965.325,-1312.5,-4261.25,1645.0,-114.0,33.44,-249.28
4211.7454,306.708,-195.078,961.299,-1452.5,-4865.0,1023.75,-98.8,0.0,-246.24
4211.7954,312.686,-199.104,962.58,-1855.0,-5433.75,498.75,-101.84,19.76,-258.4
4211.8454,318.176,-203.435,958.066,-1750.0,-4786.25,726.25,-112.48,25.84,-256.88
4211.8954,316.285,-194.163,962.885,953.75,-3010.0,-840.0,-107.92,12.16,-261.44
4211.9454,303.841,-178.059,960.689,-1382.5,-3421.25,315.0,-92.72,18.24,-250.8
4211.9954,306.83,-195.322,961.36,-2003.75,-4821.25,1583.75,-97.28,25.84,-255.36
4212.0454,312.32,-203.679,961.482,-498.75,-3832.5,2065.0,-94.24,9.12,-243.2
4212.0954,305.61,-193.126,960.872,-1741.25,-3858.75,1216.25,-103.36,15.2,-258.4
4212.1454,313.052,-199.958,962.702,-1146.25,-3412.5,236.25,-79.04,15.2,-252.32
4212.1954,302.316,-196.481,964.959,-1321.25,-2878.75,656.25,-103.36,21.28,-256.88
4212.2454,300.242,-200.385,969.839,-1216.25,-4707.5,752.5,-92.72,15.2,-256.88
4212.2954,301.523,-189.832,966.728,-393.75,-3727.5,201.25,-104.88,13.68,-269.04
4212.3454,299.388,-185.867,967.948,-1373.75,-4418.75,-350.0,-101.84,-6.08,-266.0
4212.3954,302.926,-194.407,971.669,-1968.75,-4768.75,437.5,-94.24,6.08,-258.4
4212.4454,297.802,-195.688,969.412,-1907.5,-4690.0,1260.0,-88.16,6.08,-241.68
4212.4954,301.767,-197.457,967.216,-752.5,-6002.5,1032.5,-91.2,4.56,-266.0
4212.5454,301.889,-188.124,964.471,-2765.0,-5757.5,245.0,-92.72,13.68,-255.36
4212.5954,302.133,-200.385,962.275,-2668.75,-6300.0,297.5,-83.6,7.6,-250.8
4212.6454,325.496,-200.934,963.434,131.25,-5092.5,157.5,-97.28,19.76,-262.96
4212.6956,293.959,-184.22,965.63,-1837.5,-4550.0,603.75,-79.04,10.64,-250.8
4212.7454,303.17,-193.553,963.739,-2642.5,-6116.25,848.75,-94.24,7.6,-247.76
4212.7954,313.235,-195.139,961.726,-1942.5,-5188.75,1601.25,-103.36,0.0,-258.4
4212.8454,301.096,-195.505,960.994,-2318.75,-4585.0,1855.0,-100.32,16.72,-255.36
4212.8954,325.496,-212.707,964.959,-1452.5,-5503.75,1461.25,-82.08,18.24,-255.36
4212.9454,305.915,-196.847,960.628,-1067.5,-4270.0,280.0,-114.0,0.0,-247.76
4212.9954,311.283,-199.653,959.652,-1837.5,-6378.75,-638.75,-101.84,7.6,-264.48
4213.0454,326.96,-199.348,957.517,-52.5,-3473.75,-971.25,-89.68,12.16,-261.44
4213.0954,307.135,-183.549,958.31,-638.75,-2047.5,-796.25,-107.92,1.52,-259.92
4213.1454,307.196,-190.015,966.362,-2205.0,-4532.5,157.5,-89.68,13.68,-256.88
4213.1954,306.525,-197.091,962.763,-988.75,-3876.25,1452.5,-92.72,12.16,-256.88
4213.2454,300.73,-192.272,962.519,-1303.75,-4558.75,1356.25,-101.84,12.16,-256.88
4213.2954,311.1,-192.211,960.445,-1890.0,-4322.5,988.75,-98.8,36.48,-255.36
4213.3454,300.242,-203.496,962.214,-2371.25,-4427.5,656.25,-100.32,16.72,-273.6
4213.3954,318.908,-209.901,965.691,-568.75,-4182.5,831.25,-106.4,18.24,-255.36
4213.4454,291.397,-178.303,968.497,-420.0,-2520.0,148.75,-97.28,22.8,-255.36
4213.4954,284.809,-181.841,970.571,-2870.0,-4523.75,-280.0,-83.6,3.04,-250.8
4213.5454,308.294,-198.86,965.142,-2345.0,-5460.0,1531.25,-101.84,18.24,-276.64
4213.5954,290.787,-190.991,965.996,-1356.25,-5250.0,1767.5,-101.84,18.24,-250.8
4213.6454,302.865,-198.311,964.41,-2870.0,-6238.75,1338.75,-110.96,15.2,-253.84
4213.6954,302.743,-198.738,965.264,-1505.0,-5425.0,568.75,-94.24,12.16,-259.92
4213.7454,299.205,-195.81,959.713,-2248.75,-6247.5,87.5,-97.28,31.92,-259.92
4213.7954,314.76,-205.631,962.702,-997.5,-5398.75,-393.75,-104.88,10.64,-252.32
4213.8454,307.867,-188.124,960.567,-1058.75,-4698.75,-490.0,-107.92,22.8,-258.4
4213.8954,309.636,-187.88,963.678,-1968.75,-5188.75,43.75,-89.68,13.68,-247.76
4213.9454,311.1,-200.019,961.848,-1846.25,-4427.5,1260.0,-88.16,-3.04,-258.4
4213.9954,305.732,-199.47,965.508,-1330.0,-4681.25,1391.25,-91.2,15.2,-255.36
4214.0454,309.697,-199.409,963.129,-1128.75,-4418.75,437.5,-83.6,22.8,-252.32
4214.0954,309.087,-191.479,963.983,-2292.5,-4803.75,-210.0,-94.24,3.04,-261.44
4214.1454,308.233,-200.446,956.114,-2432.5,-4996.25,542.5,-92.72,13.68,-246.24
4214.1954,321.287,-200.324,964.227,1513.75,-3263.75,-630.0,-86.64,22.8,-258.4
4214.2454,288.042,-183.305,968.131,-2686.25,-3237.5,271.25,-107.92,27.36,-246.24
4214.2954,294.325,-194.895,966.789,-2178.75,-5285.0,1181.25,-91.2,22.8,-258.4
4214.3454,305.122,-203.313,967.399,-1723.75,-4418.75,1776.25,-100.32,15.2,-250.8
4214.3954,292.739,-194.224,966.972,-1548.75,-5652.5,1356.25,-100.32,16.72,-258.4
4214.4454,316.895,-205.631,964.593,-1260.0,-5048.75,297.5,-89.68,16.72,-262.96
4214.4954,298.961,-195.017,961.604,-2161.25,-5162.5,-210.0,-97.28,19.76,-261.44
4214.5454,306.159,-203.191,964.166,-1767.5,-5740.0,-376.25,-114.0,16.72,-249.28
4214.5954,311.832,-192.394,962.58,-560.0,-3823.75,306.25,-100.32,10.64,-255.36
4214.6454,300.791,-185.379,961.909,-1531.25,-4567.5,271.25,-89.68,27.36,-255.36
4214.6954,313.967,-194.712,962.58,-2388.75,-4138.75,1067.5,-101.84,15.2,-264.48
4214.7454,301.767,-202.032,964.593,-1470.0,-4165.0,1811.25,-92.72,21.28,-256.88
4214.7954,297.497,-201.056,963.434,-1811.25,-4900.0,1697.5,-101.84,16.72,-266.0
4214.8454,304.268,-196.054,962.824,-1277.5,-4200.0,411.25,-94.24,24.32,-262.96
4214.8954,304.329,-196.786,959.225,-2450.0,-5188.75,-70.0,-86.64,15.2,-250.8
4214.9454,315.858,-213.378,962.641,-1443.75,-4751.25,183.75,-98.8,28.88,-240.16
4214.9954,295.179,-173.301,967.765,-402.5,-2765.0,-463.75,-97.28,28.88,-262.96
4215.0454,289.811,-183.488,967.704,-3202.5,-4567.5,735.0,-92.72,9.12,-256.88
4215.0954,305.183,-204.655,965.569,-1863.75,-5171.25,2607.5,-106.4,12.16,-262.96
4215.1454,294.63,-197.396,966.179,-1023.75,-4786.25,1592.5,-109.44,10.64,-272.08
4215.1954,307.501,-199.531,964.349,-2415.0,-5985.0,428.75,-106.4,31.92,-252.32
4215.2454,301.096,-198.25,969.168,-1207.5,-4226.25,-227.5,-91.2,15.2,-253.84
4215.2954,296.338,-192.943,961.848,-1925.0,-5556.25,-236.25,-104.88,22.8,-255.36
4215.3454,317.688,-196.786,961.36,-822.5,-4838.75,516.25,-94.24,1.52,-252.32
4215.3954,297.009,-188.734,964.044,-1076.25,-4243.75,691.25,-82.08,22.8,-266.0
4215.4454,305.305,-187.575,962.031,-2502.5,-4453.75,0.0,-98.8,18.24,-261.44
4215.4954,299.327,-204.594,966.606,-2065.0,-4025.0,1925.0,-98.8,4.56,-266.0
4215.5454,294.386,-202.276,962.641,-1461.25,-4882.5,1321.25,-94.24,13.68,-255.36
4215.5954,306.281,-204.594,961.665,-1382.5,-4908.75,778.75,-103.36,15.2,-261.44
4215.6454,296.338,-196.542,964.349,-1820.0,-4751.25,210.0,-110.96,6.08,-259.92
4215.6954,305.244,-201.666,958.615,-2170.0,-4952.5,-26.25,-86.64,13.68,-266.0
4215.7454,307.684,-204.472,966.789,822.5,-2817.5,-630.0,-89.68,6.08,-253.84
4215.7954,281.82,-182.085,969.229,-2747.5,-4191.25,743.75,-95.76,16.72,-258.4
4215.8454,294.325,-200.202,967.826,-2380.0,-5801.25,1811.25,-95.76,19.76,-256.88
4215.8954,306.342,-206.668,965.935,-1391.25,-4392.5,2135.0,-103.36,4.56,-261.44
4215.9454,293.837,-197.518,962.946,-1452.5,-4742.5,813.75,-97.28,12.16,-264.48
4215.9954,310.063,-206.302,963.678,-1225.0,-4655.0,175.0,-100.32,9.12,-256.88
4216.0454,293.898,-197.762,963.922,-2047.5,-4873.75,-271.25,-104.88,10.64,-256.88
4216.0954,300.181,-200.995,960.323,-1452.5,-5556.25,52.5,-98.8,16.72,-262.96
4216.1454,301.218,-191.479,964.959,-726.25,-4235.0,490.0,-89.68,25.84,-272.08
4216.1954,293.776,-191.54,965.569,-2275.0,-4803.75,113.75,-89.68,1.52,-259.92
4216.2454,306.22,-197.701,963.922,-2318.75,-4506.25,1198.75,-103.36,13.68,-252.32
4216.2954,290.421,-204.899,964.41,-1435.0,-4296.25,1793.75,-91.2,3.04,-253.84
4216.3454,294.508,-204.533,965.752,-1855.0,-5022.5,1085.0,-98.8,33.44,-259.92
4216.3954,300.242,-199.714,965.447,-1452.5,-4725.0,350.0,-104.88,25.84,-269.04
4216.4454,300.364,-202.703,958.981,-2537.5,-4821.25,-236.25,-95.76,19.76,-259.92
4216.4954,314.15,-218.38,963.129,-1216.25,-4663.75,297.5,-103.36,15.2,-262.96
4216.5454,294.63,-176.046,966.179,-997.5,-2966.25,-26.25,-103.36,13.68,-269.04
4216.5954,288.53,-192.15,968.314,-3150.0,-4690.0,682.5,-86.64,18.24,-252.32
4216.6454,300.73,-205.387,964.471,-1863.75,-5127.5,1802.5,-103.36,7.6,-262.96
4216.6954,290.726,-200.934,966.118,-1146.25,-4751.25,927.5,-83.6,13.68,-258.4
4216.7454,300.913,-203.801,963.678,-1846.25,-5503.75,752.5,-89.68,28.88,-266.0
4216.7954,299.205,-195.871,966.606,-1557.5,-4287.5,43.75,-89.68,27.36,-266.0
4216.8454,293.593,-199.775,966.606,-1968.75,-5206.25,-148.75,-101.84,18.24,-255.36
4216.8954,309.453,-197.701,962.092,-665.0,-4383.75,157.5,-95.76,6.08,-244.72
4216.9454,294.691,-192.272,964.593,-1942.5,-4436.25,341.25,-100.32,15.2,-253.84
4216.9954,297.314,-195.871,964.715,-2187.5,-5013.75,962.5,-83.6,21.28,-252.32
4217.0454,297.619,-208.071,968.558,-2030.0,-4138.75,1890.0,-91.2,19.76,-258.4
4217.0954,291.763,-207.339,963.922,-1478.75,-5145.0,1452.5,-101.84,16.72,-255.36
4217.1454,299.327,-202.398,963.007,-1102.5,-5355.0,350.0,-85.12,6.08,-255.36
4217.1954,295.972,-199.226,968.07,-2292.5,-4471.25,-306.25,-103.36,12.16,-252.32
4217.2454,297.375,-206.058,956.175,-2397.5,-5372.5,630.0,-94.24,22.8,-250.8
4217.2954,302.865,-201.056,966.301,1102.5,-3333.75,-201.25,-82.08,18.24,-259.92
4217.3454,286.883,-190.686,966.911,-3342.5,-4795.0,752.5,-97.28,13.68,-256.88
4217.3954,292.434,-204.289,968.253,-2283.75,-5442.5,1260.0,-88.16,10.64,-244.72
4217.4454,299.815,-207.583,964.654,-1233.75,-4147.5,1592.5,-95.76,4.56,-246.24
4217.4954,294.02,-198.555,967.033,-1601.25,-5197.5,1207.5,-98.8,15.2,-255.36
4217.5454,304.878,-204.289,965.325,-1347.5,-4488.75,96.25,-95.76,27.36,-246.24
4217.5954,289.689,-202.703,963.434,-1907.5,-5153.75,166.25,-72.96,24.32,-243.2
4217.6454,299.815,-208.315,966.179,-848.75,-5705.0,376.25,-110.96,22.8,-247.76
4217.6954,300.791,-193.98,963.739,-980.0,-3570.0,183.75,-89.68,31.92,-266.0
4217.7454,295.667,-197.518,964.898,-1802.5,-5013.75,603.75,-100.32,18.24,-256.88
4217.7954,299.022,-201.544,965.752,-2030.0,-4471.25,883.75,-107.92,22.8,-262.96
4217.8454,291.58,-203.069,965.63,-1706.25,-4261.25,1128.75,-82.08,19.76,-261.44
4217.8954,291.031,-206.18,965.996,-1312.5,-4847.5,1216.25,-101.84,13.68,-256.88
4217.9454,300.852,-197.335,964.044,-1522.5,-4716.25,341.25,-92.72,22.8,-282.72
4217.9954,295.423,-207.827,959.774,-2301.25,-4917.5,227.5,-83.6,19.76,-259.92
4218.0454,313.235,-215.208,964.41,-813.75,-4068.75,-288.75,-101.84,33.44,-247.76
4218.0954,283.833,-183.305,971.303,-1601.25,-2826.25,-341.25,-115.52,22.8,-256.88
4218.1454,277.672,-193.065,971.547,-2703.75,-5118.75,840.0,-71.44,30.4,-264.48
4218.1954,301.706,-201.849,966.179,-2082.5,-5643.75,2065.0,-97.28,19.76,-255.36
4218.2454,282.735,-201.971,964.105,-1916.25,-6037.5,1697.5,-95.76,36.48,-264.48
4218.2954,303.231,-208.803,965.325,-2292.5,-6317.5,840.0,-100.32,12.16,-270.56
4218.3454,298.534,-201.544,963.434,-1758.75,-5171.25,-17.5,-94.24,22.8,-258.4
4218.3954,298.351,-211.853,959.896,-1146.25,-6772.5,-376.25,-86.64,25.84,-262.96
4218.4454,313.784,-203.679,961.116,-586.25,-5355.0,-367.5,-91.2,21.28,-252.32
4218.4954,296.643,-197.274,960.323,-953.75,-5048.75,-656.25,-109.44,24.32,-255.36
4218.5454,301.828,-197.274,967.399,-1785.0,-5748.75,-691.25,-91.2,22.8,-262.96
4218.5954,302.255,-193.187,962.702,-2388.75,-4646.25,148.75,-94.24,27.36,-258.4
4218.6454,300.73,-207.705,966.484,-1925.0,-5661.25,1023.75,-95.76,15.2,-249.28
4218.6954,301.279,-201.727,960.689,-1137.5,-5713.75,988.75,-86.64,25.84,-250.8
4218.7454,310.612,-201.117,956.419,-2467.5,-5705.0,-507.5,-97.28,10.64,-249.28
4218.7954,309.148,-217.404,965.935,-1671.25,-5232.5,-665.0,-95.76,38.0,-258.4
4218.8454,301.828,-188.307,962.641,428.75,-3692.5,-498.75,-74.48,18.24,-253.84
4218.8954,301.584,-193.004,965.264,-2940.0,-4777.5,-481.25,-100.32,6.08,-246.24
4218.9454,301.95,-202.093,965.081,-2266.25,-5477.5,883.75,-100.32,13.68,-255.36
4218.9954,312.93,-195.139,955.016,-1925.0,-3158.75,1828.75,-89.68,19.76,-247.76
4219.0454,301.584,-208.071,961.848,-1785.0,-4707.5,787.5,-89.68,18.24,-247.76
4219.0954,311.283,-208.376,964.593,-1032.5,-3403.75,-52.5,-89.68,27.36,-256.88
4219.1454,291.153,-210.938,965.447,-787.5,-5048.75,-752.5,-86.64,36.48,-252.32
4219.1954,309.636,-202.886,964.593,87.5,-6116.25,-1452.5,-118.56,15.2,-262.96
4219.2454,305.671,-191.723,958.615,-17.5,-4410.0,-1111.25,-97.28,7.6,-253.84
4219.2954,308.416,-186.233,960.628,-2817.5,-3858.75,-455.0,-97.28,25.84,-255.36
4219.3454,304.878,-205.936,966.179,-1837.5,-4042.5,700.0,-98.8,15.2,-256.88
4219.3954,293.532,-199.043,967.155,-1968.75,-3841.25,1688.75,-89.68,19.76,-255.36
4219.4454,296.582,-201.849,962.397,-761.25,-5862.5,813.75,-92.72,21.28,-252.32
4219.4954,315.309,-196.603,960.323,-3622.5,-4165.0,-463.75,-101.84,3.04,-270.56
4219.5454,313.601,-216.794,964.593,70.0,-4445.0,26.25,-83.6,25.84,-247.76
4219.5954,315.858,-184.525,965.081,1233.75,-1933.75,-245.0,-91.2,-4.56,-255.36
4219.6454,275.232,-198.006,971.547,-1470.0,-3657.5,708.75,-104.88,18.24,-255.36
4219.6954,292.861,-186.721,969.29,-1863.75,-5232.5,717.5,-94.24,6.08,-266.0
4219.7454,298.351,-203.374,964.837,-1592.5,-4961.25,1548.75,-82.08,21.28,-264.48
4219.7954,297.68,-199.104,966.484,-2152.5,-5670.0,1461.25,-101.84,10.64,-259.92
4219.8454,303.292,-203.496,967.338,-1435.0,-4935.0,997.5,-97.28,22.8,-241.68
4219.8954,294.569,-203.313,965.569,-1758.75,-5293.75,945.0,-100.32,24.32,-252.32
4219.9454,307.562,-204.96,961.36,-787.5,-5757.5,428.75,-92.72,15.2,-258.4
4219.9954,306.891,-195.81,961.848,-691.25,-4698.75,-140.0,-83.6,25.84,-258.4
4220.0454,303.231,-188.612,961.482,-1916.25,-5092.5,-612.5,-89.68,19.76,-258.4
4220.0954,312.076,-195.871,963.8,-2161.25,-4340.0,148.75,-103.36,22.8,-247.76
4220.1454,298.9,-200.69,965.386,-1487.5,-4628.75,1557.5,-98.8,22.8,-256.88
4220.1954,307.257,-195.505,959.103,-673.75,-4716.25,1198.75,-95.76,13.68,-253.84
4220.2454,306.037,-186.599,961.116,-2537.5,-3823.75,568.75,-100.32,12.16,-252.32
4220.2954,309.697,-210.023,958.005,-2563.75,-3832.5,1216.25,-74.48,24.32,-262.96
4220.3454,313.296,-208.376,965.813,525.0,-2922.5,1233.75,-101.84,30.4,-258.4
4220.3954,276.879,-186.843,971.364,-2126.25,-3666.25,1058.75,-100.32,9.12,-264.48
4220.4454,290.97,-204.716,970.571,-2135.0,-6081.25,1233.75,-91.2,22.8,-269.04
4220.4954,300.242,-206.546,964.715,-1356.25,-5626.25,1050.0,-106.4,-6.08,-256.88
4220.5454,288.53,-198.555,968.985,-2695.0,-6046.25,262.5,-98.8,10.64,-258.4
4220.5954,301.34,-205.814,968.924,-1207.5,-6028.75,402.5,-95.76,18.24,-258.4
4220.6454,290.604,-197.579,963.861,-2021.25,-6693.75,638.75,-97.28,19.76,-259.92
4220.6954,310.002,-205.448,962.763,-1767.5,-7437.5,140.0,-94.24,18.24,-261.44
4220.7454,313.845,-200.568,957.517,-1155.0,-5845.0,-35.0,-89.68,13.68,-262.96
4220.7954,314.089,-195.627,958.249,-1645.0,-4462.5,-148.75,-97.28,21.28,-255.36
4220.8454,317.688,-200.019,960.018,-2056.25,-4480.0,498.75,-91.2,24.32,-256.88
4220.8954,312.076,-204.594,960.506,-1557.5,-3263.75,1015.0,-83.6,27.36,-264.48
4220.9455,305.305,-198.494,963.922,-1058.75,-4243.75,822.5,-92.72,16.72,-258.4
4220.9954,310.063,-201.483,960.75,-2152.5,-3867.5,612.5,-106.4,19.76,-269.04
4221.0454,313.906,-209.596,958.188,-1470.0,-3421.25,770.0,-91.2,13.68,-258.4
4221.0954,298.229,-189.71,966.972,-43.75,-1820.0,-402.5,-98.8,15.2,-256.88
4221.1454,283.894,-193.309,968.009,-1977.5,-2677.5,183.75,-91.2,4.56,-258.4
4221.1954,287.31,-199.592,969.229,-1767.5,-5118.75,717.5,-85.12,18.24,-241.68
4221.2454,290.665,-203.313,971.974,-945.0,-5451.25,367.5,-97.28,12.16,-255.36
4221.2954,292.922,-198.189,967.887,-1855.0,-5862.5,568.75,-82.08,24.32,-255.36
4221.3454,305.183,-196.725,962.58,-1715.0,-6623.75,-113.75,-85.12,10.64,-253.84
4221.3954,301.462,-200.751,961.604,-2170.0,-5547.5,-183.75,-114.0,18.24,-258.4
4221.4454,315.431,-200.202,961.177,-1085.0,-5967.5,262.5,-98.8,22.8,-250.8
4221.4954,308.721,-193.431,960.628,-1216.25,-4567.5,-148.75,-88.16,24.32,-235.6
4221.5454,312.137,-196.908,961.36,-1688.75,-4873.75,402.5,-103.36,7.6,-249.28
4221.5954,310.124,-202.215,963.068,-1522.5,-3526.25,1260.0,-88.16,22.8,-247.76
4221.6454,300.181,-203.313,961.299,-1478.75,-4095.0,1058.75,-89.68,13.68,-252.32
4221.6954,304.695,-201.056,964.105,-1102.5,-3290.0,647.5,-101.84,18.24,-258.4
4221.7454,304.268,-199.043,959.408,-2135.0,-3946.25,148.75,-85.12,15.2,-261.44
4221.7954,305.732,-210.511,965.081,-1688.75,-3937.5,455.0,-95.76,9.12,-264.48
4221.8454,299.571,-185.013,962.824,402.5,-1863.75,-411.25,-91.2,10.64,-259.92
4221.8954,279.38,-189.039,971.181,-1986.25,-3552.5,52.5,-86.64,13.68,-244.72
4221.9454,292.861,-197.579,968.802,-1662.5,-4663.75,411.25,-94.24,21.28,-264.48
4221.9954,286.517,-194.895,967.155,-1023.75,-4882.5,831.25,-97.28,9.12,-272.08
4222.0454,291.214,-193.797,969.229,-2240.0,-6606.25,840.0,-103.36,24.32,-259.92
4222.0954,299.327,-201.117,968.314,-1697.5,-5486.25,463.75,-89.68,13.68,-253.84
4222.1454,299.327,-198.25,965.142,-1382.5,-6588.75,131.25,-94.24,18.24,-255.36
4222.1954,308.05,-201.3,961.787,-1006.25,-6265.0,-297.5,-88.16,21.28,-253.84
4222.2454,313.052,-195.261,960.811,-630.0,-4768.75,-805.0,-107.92,0.0,-259.92
4222.2954,302.987,-191.967,962.519,-1365.0,-5127.5,-297.5,-114.0,19.76,-261.44
4222.3454,312.137,-195.627,963.861,-2100.0,-4471.25,262.5,-85.12,19.76,-252.32
4222.3954,299.571,-202.886,964.593,-866.25,-4593.75,1233.75,-121.6,18.24,-267.52
4222.4454,310.002,-188.612,963.312,-1268.75,-4830.0,1102.5,-86.64,24.32,-275.12
4222.4954,302.804,-198.982,961.604,-2528.75,-4112.5,52.5,-97.28,9.12,-267.52
4222.5454,317.078,-208.925,961.482,-1023.75,-3858.75,-43.75,-91.2,7.6,-255.36
4222.5955,298.168,-187.941,962.458,-638.75,-2030.0,-201.25,-82.08,18.24,-258.4
4222.6454,294.63,-193.858,971.486,-1330.0,-3010.0,-761.25,-88.16,13.68,-247.76
4222.6954,293.471,-193.126,970.876,-1487.5,-3307.5,472.5,-95.76,12.16,-255.36
4222.7454,282.125,-186.05,968.07,-1680.0,-4558.75,1505.0,-92.72,13.68,-262.96
4222.7954,299.449,-195.566,970.022,-1785.0,-6116.25,1155.0,-95.76,15.2,-252.32
4222.8454,297.07,-197.823,967.643,-1758.75,-4777.5,691.25,-112.48,10.64,-256.88
4222.8954,295.179,-198.921,964.41,-1382.5,-6317.5,-35.0,-101.84,10.64,-273.6
4222.9454,309.026,-196.298,966.789,-481.25,-5897.5,-183.75,-92.72,21.28,-262.96
4222.9954,297.619,-185.379,964.898,-1225.0,-5600.0,175.0,-97.28,3.04,-269.04
4223.0454,313.113,-186.538,962.153,-2240.0,-5407.5,525.0,-95.76,9.12,-266.0
4223.0954,302.011,-198.494,962.519,-2450.0,-4637.5,1102.5,-94.24,19.76,-264.48
4223.1454,307.501,-195.627,961.665,-455.0,-5311.25,1085.0,-101.84,4.56,-262.96
4223.1954,310.307,-185.013,960.506,-2406.25,-5267.5,936.25,-89.68,18.24,-266.0
4223.2454,311.466,-212.402,954.162,-2222.5,-4331.25,1251.25,-80.56,9.12,-244.72
4223.2954,314.943,-195.627,963.251,682.5,-2318.75,297.5,-109.44,21.28,-261.44
4223.3454,287.615,-183.244,964.593,-1382.5,-2012.5,0.0,-97.28,21.28,-258.4
4223.3954,296.826,-195.688,969.412,-2196.25,-3666.25,700.0,-112.48,6.08,-246.24
4223.4454,294.752,-196.969,969.717,-1172.5,-4392.5,1645.0,-103.36,16.72,-273.6
4223.4954,287.554,-191.235,966.667,-1872.5,-5048.75,1925.0,-97.28,15.2,-258.4
4223.5454,297.009,-200.08,971.242,-1557.5,-4786.25,892.5,-101.84,10.64,-258.4
4223.5954,284.321,-195.627,971.303,-1898.75,-5433.75,341.25,-97.28,12.16,-264.48
4223.6454,292.861,-201.666,969.29,-1968.75,-6265.0,-35.0,-77.52,27.36,-250.8
4223.6954,305.732,-196.298,965.935,-411.25,-5267.5,122.5,-94.24,27.36,-255.36
4223.7454,293.959,-187.514,965.081,-1251.25,-5862.5,-262.5,-98.8,6.08,-259.92
4223.7954,313.052,-196.969,960.567,-2677.5,-5862.5,-35.0,-83.6,22.8,-259.92
4223.8454,303.719,-199.775,966.484,-1120.0,-4970.0,577.5,-101.84,19.76,-249.28
4223.8954,305.122,-192.821,962.58,-1181.25,-5530.0,848.75,-82.08,10.64,-267.52
4223.9454,315.858,-194.956,960.14,-2887.5,-5022.5,-17.5,-94.24,18.24,-244.72
4223.9954,307.44,-205.265,957.09,-2467.5,-5250.0,542.5,-100.32,15.2,-249.28
4224.0454,321.653,-194.102,959.042,402.5,-2528.75,-280.0,-88.16,25.84,-259.92
4224.0954,291.519,-186.965,966.362,-2695.0,-3902.5,-166.25,-98.8,16.72,-264.48
4224.1454,299.449,-198.799,963.129,-2257.5,-4313.75,1146.25,-109.44,10.64,-255.36
4224.1954,303.719,-201.605,968.192,-726.25,-3535.0,1898.75,-89.68,19.76,-250.8
4224.2455,289.567,-190.076,968.07,-1907.5,-3946.25,1076.25,-107.92,27.36,-249.28
4224.2954,307.135,-205.509,967.826,-1487.5,-4847.5,175.0,-115.52,31.92,-253.84
4224.3454,299.937,-196.237,964.288,-1881.25,-4270.0,297.5,-80.56,13.68,-253.84
4224.3954,309.026,-200.629,955.016,-857.5,-4445.0,875.0,-89.68,15.2,-252.32
4224.4454,305.427,-194.285,967.704,-1181.25,-2065.0,1067.5,-97.28,15.2,-266.0
4224.4954,288.103,-193.919,969.107,-1837.5,-2861.25,315.0,-94.24,22.8,-244.72
4224.5454,295.484,-199.287,967.338,-1496.25,-4663.75,936.25,-91.2,15.2,-253.84
4224.5954,294.874,-202.947,960.628,-1260.0,-4103.75,1163.75,-86.64,16.72,-256.88
4224.6454,297.436,-199.104,965.447,-402.5,-3552.5,1172.5,-101.84,21.28,-275.12
4224.6954,295.728,-193.065,966.911,-1461.25,-3185.0,1373.75,-107.92,18.24,-252.32
4224.7454,287.31,-205.875,967.887,-2143.75,-4191.25,700.0,-86.64,3.04,-269.04
4224.7954,286.212,-192.028,972.95,603.75,-3911.25,-1163.75,-100.32,7.6,-256.88
4224.8454,279.624,-188.978,970.144,-2283.75,-4445.0,-516.25,-91.2,10.64,-259.92
4224.8954,285.114,-195.749,969.29,-1618.75,-5836.25,691.25,-86.64,15.2,-250.8
4224.9454,291.702,-197.03,967.643,-778.75,-4961.25,1242.5,-103.36,19.76,-269.04
4224.9954,294.142,-197.823,965.508,-2336.25,-6641.25,420.0,-97.28,22.8,-258.4
4225.0454,301.34,-199.836,969.961,-717.5,-5521.25,-665.0,-94.24,16.72,-253.84
4225.0954,294.813,-189.893,962.946,-2021.25,-5635.0,61.25,-95.76,13.68,-255.36
4225.1454,300.425,-199.409,962.214,-1478.75,-6142.5,498.75,-95.76,27.36,-253.84
4225.1954,303.17,-191.052,963.129,-323.75,-4637.5,385.0,-97.28,3.04,-272.08
4225.2454,296.521,-186.965,964.105,-2222.5,-4515.0,-262.5,-110.96,18.24,-264.48
4225.2954,299.937,-198.067,967.887,-1793.75,-4436.25,210.0,-94.24,10.64,-250.8
4225.3454,293.776,-194.468,969.046,-997.5,-4497.5,1181.25,-104.88,1.52,-252.32
4225.3954,296.094,-191.052,967.399,-980.0,-4707.5,892.5,-100.32,25.84,-262.96
4225.4454,306.403,-188.856,964.776,-3001.25,-5083.75,43.75,-95.76,18.24,-278.16
4225.4954,307.074,-209.535,968.436,-1146.25,-4462.5,-26.25,-107.92,4.56,-279.68
4225.5454,305.0,-186.904,964.349,-61.25,-2765.0,-385.0,-91.2,21.28,-261.44
4225.5954,287.249,-189.1,969.107,-1828.75,-4042.5,980.0,-76.0,24.32,-261.44
4225.6454,292.068,-190.869,968.253,-1916.25,-4462.5,1767.5,-95.76,9.12,-255.36
4225.6954,292.617,-195.139,966.972,-1653.75,-3955.0,927.5,-88.16,16.72,-264.48
4225.7454,293.471,-199.226,968.314,-2266.25,-5530.0,428.75,-82.08,7.6,-256.88
4225.7954,298.351,-198.067,968.131,-1032.5,-4086.25,577.5,-92.72,-4.56,-252.32
4225.8454,281.759,-194.773,968.436,-1356.25,-5740.0,-87.5,-83.6,10.64,-259.92
4225.8955,302.743,-198.25,969.534,-691.25,-5880.0,-560.0,-92.72,9.12,-240.16
4225.9454,295.362,-186.172,968.497,-516.25,-5215.0,-831.25,-101.84,15.2,-250.8
4225.9954,295.911,-185.196,965.447,-2038.75,-5600.0,-341.25,-91.2,16.72,-259.92
4226.0454,301.767,-189.344,965.874,-2100.0,-5355.0,455.0,-94.24,7.6,-269.04
4226.0954,298.046,-198.311,965.325,-1058.75,-5162.5,1793.75,-103.36,12.16,-255.36
4226.1454,300.547,-180.926,962.824,-1872.5,-5302.5,875.0,-89.68,12.16,-275.12
4226.1954,302.865,-192.821,963.068,-3718.75,-4970.0,-43.75,-92.72,1.52,-247.76
4226.2454,313.357,-208.132,964.349,70.0,-4917.5,218.75,-100.32,4.56,-264.48
4226.2954,291.763,-171.715,962.336,-1846.25,-3902.5,560.0,-91.2,10.64,-253.84
4226.3454,295.423,-198.311,970.327,-2791.25,-5101.25,953.75,-110.96,30.4,-261.44
4226.3954,294.935,-194.468,965.325,-1531.25,-4760.0,1505.0,-95.76,15.2,-259.92
4226.4454,294.02,-193.187,962.336,-1373.75,-4698.75,1102.5,-100.32,16.72,-250.8
4226.4954,306.403,-202.886,965.508,-2222.5,-5276.25,1085.0,-85.12,3.04,-256.88
4226.5454,297.619,-193.736,966.301,-1505.0,-3465.0,735.0,-94.24,18.24,-255.36
4226.5954,288.591,-197.884,963.739,-2292.5,-4812.5,621.25,-94.24,27.36,-258.4
4226.6454,308.355,-199.531,961.238,-280.0,-4331.25,323.75,-95.76,13.68,-262.96
4226.6954,297.314,-189.405,968.558,-297.5,-2756.25,-192.5,-92.72,16.72,-256.88
4226.7454,289.262,-182.939,970.022,-2082.5,-3815.0,-323.75,-104.88,16.72,-262.96
4226.7954,295.423,-195.81,970.144,-1793.75,-4077.5,1452.5,-85.12,22.8,-252.32
4226.8454,285.419,-195.444,971.425,-1828.75,-4891.25,2546.25,-89.68,13.68,-262.96
4226.8954,294.935,-192.211,966.728,-1767.5,-5075.0,1277.5,-72.96,15.2,-255.36
4226.9454,297.07,-197.579,963.678,-3010.0,-4952.5,682.5,-95.76,24.32,-258.4
4226.9954,303.353,-212.524,967.704,-1872.5,-4681.25,621.25,-83.6,19.76,-255.36
4227.0454,290.787,-180.865,966.179,-446.25,-3237.5,131.25,-110.96,-4.56,-264.48
4227.0954,282.186,-186.782,972.279,-2485.0,-4427.5,638.75,-100.32,13.68,-240.16
4227.1454,295.484,-200.507,964.898,-2205.0,-5328.75,1618.75,-91.2,21.28,-276.64
4227.1954,292.312,-193.797,966.484,-1111.25,-3876.25,1102.5,-98.8,9.12,-259.92
4227.2454,292.495,-199.897,967.704,-2170.0,-5136.25,743.75,-104.88,10.64,-261.44
4227.2954,293.959,-197.884,970.327,-1251.25,-3815.0,52.5,-100.32,9.12,-261.44
4227.3454,285.907,-197.03,967.826,-1793.75,-5258.75,-78.75,-79.04,33.44,-253.84
4227.3954,297.68,-197.091,967.521,-805.0,-4628.75,-148.75,-89.68,27.36,-266.0
4227.4454,288.896,-186.599,965.569,-1216.25,-3780.0,-245.0,-98.8,13.68,-266.0
4227.4954,291.641,-185.501,965.691,-2143.75,-4751.25,603.75,-94.24,21.28,-258.4
4227.5455,288.225,-196.298,972.828,-1706.25,-4375.0,1890.0,-83.6,18.24,-261.44
4227.5954,287.615,-198.067,967.033,-1986.25,-4847.5,1548.75,-91.2,9.12,-267.52
4227.6454,292.983,-199.348,968.131,-1268.75,-5652.5,752.5,-86.64,25.84,-250.8
4227.6954,297.863,-194.407,964.898,-2835.0,-5075.0,-105.0,-92.72,15.2,-270.56
4227.7454,299.632,-208.193,959.774,-2476.25,-5390.0,883.75,-109.44,21.28,-262.96
4227.7954,294.874,-189.039,969.107,857.5,-3080.0,-61.25,-86.64,16.72,-267.52
4227.8454,280.417,-189.222,971.608,-3080.0,-5005.0,560.0,-101.84,15.2,-269.04
4227.8954,290.909,-201.971,970.632,-2362.5,-5626.25,1260.0,-82.08,16.72,-258.4
4227.9454,290.787,-200.202,965.996,-1120.0,-4506.25,1076.25,-101.84,24.32,-258.4
4227.9954,286.578,-196.054,965.935,-2073.75,-5845.0,875.0,-103.36,22.8,-241.68
4228.0454,300.73,-202.886,969.534,-831.25,-4410.0,-70.0,-85.12,34.96,-269.04
4228.0954,285.663,-195.749,965.447,-1863.75,-5652.5,-533.75,-103.36,21.28,-255.36
4228.1454,304.756,-198.982,963.556,-1295.0,-6098.75,-673.75,-98.8,12.16,-253.84
4228.1954,298.961,-188.734,963.373,-682.5,-3552.5,402.5,-94.24,27.36,-261.44
4228.2454,295.423,-186.599,959.652,-1793.75,-3613.75,796.25,-91.2,25.84,-258.4
4228.2954,305.854,-198.86,965.813,-2100.0,-2668.75,1741.25,-83.6,19.76,-261.44
4228.3454,278.831,-201.971,969.656,-1513.75,-2983.75,2143.75,-77.52,22.8,-256.88
4228.3954,285.541,-200.629,973.56,-1155.0,-4410.0,892.5,-98.8,15.2,-258.4
4228.4454,286.212,-196.481,970.022,-2161.25,-4506.25,-157.5,-83.6,10.64,-256.88
4228.4954,288.408,-207.522,967.643,-1715.0,-5022.5,717.5,-86.64,22.8,-269.04
4228.5454,298.046,-205.021,969.473,848.75,-3552.5,-306.25,-115.52,33.44,-266.0
4228.5954,270.047,-182.817,970.876,-2738.75,-3395.0,17.5,-89.68,18.24,-253.84
4228.6454,273.341,-197.64,972.767,-2248.75,-5836.25,673.75,-88.16,19.76,-256.88
4228.6954,293.349,-200.019,967.826,-1601.25,-4751.25,1627.5,-101.84,19.76,-262.96
4228.7454,283.162,-194.102,967.033,-2021.25,-5022.5,875.0,-88.16,22.8,-256.88
4228.7954,298.168,-206.546,969.717,-1303.75,-4996.25,-175.0,-95.76,15.2,-250.8
4228.8454,280.783,-193.919,969.961,-1820.0,-4672.5,-481.25,-83.6,21.28,-262.96
4228.8954,283.589,-201.605,967.765,-1286.25,-5503.75,-227.5,-94.24,13.68,-256.88
4228.9454,296.704,-190.747,969.229,-481.25,-4497.5,542.5,-83.6,28.88,-259.92
4228.9954,277.977,-187.697,971.303,-1487.5,-5101.25,752.5,-98.8,22.8,-253.84
4229.0454,287.798,-190.808,966.545,-2590.0,-5442.5,883.75,-100.32,19.76,-264.48
4229.0954,282.43,-203.252,970.754,-1785.0,-4602.5,1330.0,-88.16,9.12,-258.4
4229.1454,286.944,-200.995,966.789,-1312.5,-5661.25,735.0,-89.68,9.12,-262.96
4229.1955,295.057,-192.089,966.057,-1662.5,-5372.5,446.25,-92.72,13.68,-258.4
4229.2454,293.044,-200.446,962.153,-2397.5,-4690.0,612.5,-91.2,27.36,-258.4
4229.2954,302.926,-212.585,969.229,-1452.5,-4908.75,113.75,-88.16,12.16,-240.16
4229.3454,284.199,-179.462,967.338,-988.75,-2695.0,-402.5,-98.8,30.4,-246.24
4229.3954,284.199,-199.653,971.547,-2012.5,-5048.75,490.0,-100.32,25.84,-266.0
4229.4454,294.203,-200.751,964.715,-1828.75,-5005.0,1505.0,-88.16,21.28,-258.4
4229.4954,282.918,-196.237,964.593,-1408.75,-4383.75,866.25,-85.12,28.88,-281.2
4229.5454,288.957,-202.398,970.388,-1986.25,-5363.75,210.0,-110.96,12.16,-264.48
4229.5954,284.748,-197.823,968.192,-1531.25,-3946.25,-131.25,-80.56,15.2,-261.44
4229.6454,286.334,-201.056,969.107,-1120.0,-6370.0,-647.5,-89.68,28.88,-238.64
4229.6954,300.73,-197.518,964.288,-542.5,-5092.5,-402.5,-94.24,12.16,-252.32
4229.7454,290.726,-187.941,964.898,-665.0,-4611.25,-463.75,-89.68,16.72,-266.0
4229.7954,287.859,-185.867,967.643,-1951.25,-4952.5,-490.0,-101.84,28.88,-256.88
4229.8454,294.63,-196.115,969.534,-1776.25,-4392.5,971.25,-101.84,16.72,-256.88
4229.8954,283.65,-199.775,970.449,-1330.0,-5180.0,1583.75,-92.72,21.28,-278.16
4229.9454,293.532,-189.893,966.24,-1645.0,-5407.5,1172.5,-95.76,15.2,-252.32
4229.9954,293.41,-199.836,964.349,-2878.75,-5075.0,481.25,-89.68,27.36,-275.12
4230.0454,308.05,-208.986,969.412,-332.5,-4970.0,192.5,-85.12,22.8,-261.44
4230.0954,295.301,-186.477,968.375,-297.5,-2222.5,-262.5,-103.36,21.28,-272.08
4230.1454,284.138,-190.808,969.29,-2861.25,-4952.5,323.75,-79.04,15.2,-269.04
4230.1954,287.005,-201.361,968.314,-2327.5,-4943.75,1190.0,-88.16,22.8,-249.28
4230.2454,284.87,-194.59,965.996,-1102.5,-4611.25,1452.5,-97.28,18.24,-261.44
4230.2954,295.423,-205.936,969.046,-1688.75,-5145.0,350.0,-76.0,21.28,-264.48
4230.3454,290.421,-196.786,968.924,-1233.75,-3561.25,-43.75,-88.16,18.24,-258.4
4230.3954,283.833,-201.117,967.399,-1470.0,-5985.0,-218.75,-98.8,21.28,-264.48
4230.4454,297.863,-199.897,969.656,-752.5,-5110.0,-253.75,-83.6,18.24,-253.84
4230.4954,288.408,-186.416,968.497,-840.0,-4471.25,35.0,-100.32,18.24,-261.44
4230.5454,292.251,-190.442,969.168,-2388.75,-5232.5,332.5,-88.16,28.88,-259.92
4230.5954,293.959,-195.871,967.704,-1776.25,-4830.0,1548.75,-95.76,16.72,-261.44
4230.6454,291.763,-202.947,968.314,-1347.5,-5565.0,2135.0,-109.44,27.36,-259.92
4230.6954,298.046,-187.148,963.678,-1548.75,-4445.0,1251.25,-83.6,16.72,-278.16
4230.7454,292.312,-196.725,968.009,-3613.75,-4497.5,708.75,-94.24,22.8,-258.4
4230.7954,306.22,-216.428,968.802,-210.0,-5092.5,437.5,-92.72,21.28,-253.84
4230.8454,301.828,-187.331,967.521,542.5,-2835.0,17.5,-94.24,10.64,-273.6
4230.8954,276.574,-193.492,970.449,-1995.0,-5013.75,157.5,-98.8,22.8,-253.84
4230.9454,292.251,-202.398,966.728,-1846.25,-4226.25,1470.0,-94.24,19.76,-266.0
4230.9954,282.857,-200.507,970.876,-796.25,-4427.5,1120.0,-89.68,4.56,-253.84
4231.0454,294.142,-198.921,969.229,-2240.0,-5022.5,840.0,-98.8,16.72,-266.0
4231.0954,289.384,-204.35,973.011,-1277.5,-4261.25,717.5,-88.16,21.28,-266.0
4231.1454,279.319,-193.553,969.351,-1697.5,-5495.0,-26.25,-88.16,9.12,-264.48
4231.1954,299.632,-204.472,965.874,-743.75,-5670.0,192.5,-92.72,22.8,-266.0
4231.2454,292.129,-191.723,965.569,140.0,-4033.75,411.25,-92.72,15.2,-269.04
4231.2954,289.445,-180.926,968.253,-2318.75,-4795.0,-516.25,-80.56,12.16,-261.44
4231.3454,293.532,-200.812,968.802,-2091.25,-4033.75,1198.75,-107.92,25.84,-246.24
4231.3954,282.918,-197.335,970.022,-1128.75,-4821.25,2047.5,-86.64,24.32,-258.4
4231.4454,296.399,-197.884,966.423,-1785.0,-5346.25,1242.5,-89.68,24.32,-252.32
4231.4954,293.105,-197.03,967.094,-2021.25,-4865.0,551.25,-76.0,16.72,-266.0
4231.5454,290.848,-203.862,961.116,-2633.75,-5678.75,568.75,-101.84,13.68,-262.96
4231.5954,297.314,-203.435,968.863,691.25,-3123.75,-271.25,-98.8,28.88,-259.92
4231.6454,277.611,-183.854,967.033,-1435.0,-3666.25,192.5,-95.76,13.68,-264.48
4231.6954,287.615,-196.298,969.595,-2607.5,-5110.0,673.75,-91.2,19.76,-247.76
4231.7454,291.031,-204.472,964.471,-1741.25,-4383.75,1662.5,-88.16,24.32,-262.96
4231.7954,283.223,-193.248,969.351,-1522.5,-4908.75,1242.5,-104.88,10.64,-266.0
4231.8454,290.848,-206.18,971.364,-1251.25,-4602.5,376.25,-92.72,24.32,-266.0
4231.8954,287.371,-195.444,969.473,-1400.0,-4760.0,227.5,-95.76,13.68,-262.96
4231.9454,291.641,-200.019,968.802,-1417.5,-5302.5,-17.5,-109.44,21.28,-269.04
4231.9954,291.763,-195.566,968.985,-463.75,-4462.5,630.0,-80.56,24.32,-269.04
4232.0454,285.48,-186.843,966.606,-1426.25,-4663.75,472.5,-94.24,15.2,-244.72
4232.0954,289.323,-194.956,968.436,-2380.0,-4891.25,1216.25,-85.12,15.2,-267.52
4232.1454,287.432,-202.032,967.704,-1662.5,-4523.75,1828.75,-92.72,13.68,-261.44
4232.1954,285.419,-203.862,966.423,-1697.5,-5328.75,1023.75,-88.16,39.52,-258.4
4232.2454,291.214,-199.47,965.874,-1881.25,-4891.25,341.25,-80.56,30.4,-258.4
4232.2954,287.859,-199.775,965.081,-2318.75,-5162.5,288.75,-86.64,27.36,-264.48
4232.3454,304.878,-213.805,965.996,-507.5,-4725.0,-70.0,-85.12,25.84,-272.08
4232.3954,286.944,-185.806,970.266,-638.75,-3473.75,-630.0,-86.64,22.8,-249.28
4232.4454,279.136,-198.311,970.693,-2668.75,-5617.5,131.25,-100.32,15.2,-256.88
4232.4954,294.02,-205.143,966.179,-1513.75,-5293.75,857.5,-94.24,15.2,-244.72
4232.5454,283.894,-199.958,969.961,-787.5,-5346.25,630.0,-80.56,7.6,-255.36
4232.5954,297.802,-202.703,967.582,-1750.0,-5468.75,-26.25,-94.24,10.64,-275.12
4232.6454,292.007,-193.492,967.643,-1286.25,-5285.0,-717.5,-82.08,27.36,-264.48
4232.6954,287.005,-202.459,967.948,-2056.25,-6011.25,-96.25,-103.36,13.68,-258.4
4232.7454,304.695,-194.468,964.471,-761.25,-5022.5,-393.75,-103.36,28.88,-266.0
4232.7954,293.654,-191.723,964.41,-1566.25,-4698.75,-271.25,-74.48,15.2,-253.84
4232.8454,300.486,-195.932,964.227,-1820.0,-4208.75,577.5,-95.76,21.28,-255.36
4232.8954,297.192,-202.276,965.264,-1006.25,-3727.5,1391.25,-82.08,6.08,-261.44
4232.9454,285.785,-200.934,966.484,-1382.5,-4270.0,568.75,-94.24,13.68,-264.48
4232.9954,293.044,-197.152,966.057,-936.25,-4672.5,-533.75,-94.24,9.12,-250.8
4233.0454,298.168,-195.139,964.166,-1601.25,-4996.25,-586.25,-95.76,24.32,-247.76
4233.0954,303.231,-207.949,964.593,-1723.75,-4191.25,-157.5,-88.16,13.68,-252.32
4233.1454,292.617,-182.512,966.484,883.75,-2178.75,-682.5,-94.24,21.28,-270.56
4233.1954,275.476,-177.632,973.438,-2108.75,-2791.25,-980.0,-94.24,28.88,-259.92
4233.2454,287.432,-196.969,973.865,-2450.0,-5241.25,516.25,-86.64,15.2,-258.4
4233.2954,293.593,-199.043,966.301,-857.5,-4541.25,1312.5,-100.32,19.76,-256.88
4233.3454,284.077,-194.956,969.9,-2178.75,-5775.0,148.75,-91.2,22.8,-269.04
4233.3954,295.789,-200.629,969.595,-1330.0,-4602.5,-472.5,-98.8,21.28,-247.76
4233.4454,284.443,-197.091,969.412,-822.5,-4935.0,-910.0,-88.16,33.44,-249.28
4233.4954,294.569,-195.566,967.704,-385.0,-5626.25,-1951.25,-92.72,3.04,-262.96
4233.5454,298.778,-183.061,965.447,-192.5,-4278.75,-2170.0,-83.6,10.64,-259.92
4233.5954,290.238,-178.059,970.876,-1382.5,-4340.0,-1995.0,-97.28,15.2,-261.44
4233.6454,296.094,-185.623,968.497,-1373.75,-4523.75,-428.75,-100.32,13.68,-278.16
4233.6954,291.458,-191.235,968.619,-1435.0,-4086.25,385.0,-89.68,15.2,-284.24
4233.7454,291.702,-181.17,970.571,-708.75,-5083.75,-122.5,-100.32,12.16,-269.04
4233.7954,294.691,-189.344,966.85,-3071.25,-5416.25,105.0,-68.4,19.76,-264.48
4233.8454,298.656,-199.226,965.63,-1137.5,-5547.5,288.75,-98.8,13.68,-264.48
4233.8954,300.181,-170.373,968.619,-700.0,-2633.75,-542.5,-107.92,9.12,-261.44
4233.9454,276.33,-177.51,972.828,-2397.5,-4252.5,175.0,-88.16,18.24,-264.48
4233.9954,287.981,-186.965,971.12,-1793.75,-5547.5,1452.5,-83.6,6.08,-262.96
4234.0454,298.473,-189.283,968.619,-1855.0,-5285.0,1417.5,-103.36,6.08,-256.88
4234.0954,291.58,-191.967,967.643,-2161.25,-6037.5,857.5,-91.2,3.04,-252.32
4234.1454,308.172,-186.782,971.364,-980.0,-5390.0,87.5,-94.24,10.64,-259.92
4234.1954,291.458,-192.577,965.325,-2275.0,-6247.5,-350.0,-88.16,18.24,-266.0
4234.2454,308.172,-193.675,963.861,-1137.5,-6658.75,87.5,-92.72,13.68,-253.84
4234.2954,304.512,-185.013,964.227,-551.25,-4182.5,157.5,-95.76,18.24,-269.04
4234.3454,296.948,-176.412,966.301,-1662.5,-4812.5,-428.75,-82.08,3.04,-253.84
4234.3954,299.449,-193.858,968.741,-2353.75,-3692.5,245.0,-101.84,4.56,-264.48
4234.4454,298.107,-192.699,963.556,-1627.5,-3885.0,1181.25,-100.32,22.8,-266.0
4234.4954,292.8,-194.102,966.118,-420.0,-4427.5,1767.5,-97.28,15.2,-264.48
4234.5454,303.109,-180.072,963.373,-2091.25,-3281.25,971.25,-92.72,28.88,-266.0
4234.5954,293.349,-194.651,963.556,-2283.75,-3710.0,1041.25,-94.24,16.72,-261.44
4234.6454,298.778,-189.039,970.571,691.25,-2231.25,875.0,-109.44,15.2,-244.72
4234.6954,273.036,-176.778,974.536,-2362.5,-2625.0,708.75,-92.72,10.64,-255.36
4234.7454,275.232,-185.989,976.244,-2616.25,-5075.0,1452.5,-88.16,1.52,-266.0
4234.7954,290.177,-192.333,973.072,-1793.75,-5293.75,2633.75,-83.6,12.16,-261.44
4234.8454,276.757,-189.527,969.656,-2030.0,-5836.25,1732.5,-77.52,25.84,-269.04
4234.8954,301.096,-192.333,968.375,-1820.0,-5906.25,682.5,-100.32,10.64,-266.0
4234.9454,285.48,-193.004,963.373,-2240.0,-5486.25,638.75,-94.24,15.2,-255.36
4234.9954,292.739,-197.335,966.057,-2003.75,-7245.0,411.25,-100.32,1.52,-278.16
4235.0454,306.159,-192.577,963.312,-778.75,-4900.0,376.25,-100.32,12.16,-253.84
4235.0954,295.362,-179.645,966.301,-1750.0,-4917.5,8.75,-82.08,28.88,-250.8
4235.1454,298.229,-189.405,966.911,-2773.75,-4978.75,866.25,-104.88,15.2,-262.96
4235.1954,296.582,-191.784,965.02,-1680.0,-4926.25,1540.0,-92.72,19.76,-273.6
4235.2454,293.654,-196.359,964.898,-1776.25,-5048.75,1566.25,-89.68,1.52,-262.96
4235.2954,302.926,-186.782,964.837,-1566.25,-4716.25,516.25,-89.68,16.72,-262.96
4235.3454,292.861,-200.019,960.262,-2887.5,-4768.75,70.0,-92.72,18.24,-261.44
4235.3954,310.429,-208.986,967.704,-350.0,-3850.0,183.75,-106.4,18.24,-253.84
4235.4454,275.415,-172.203,974.292,-1496.25,-2782.5,463.75,-76.0,19.76,-262.96
4235.4954,277.855,-187.331,975.451,-2520.0,-4917.5,848.75,-97.28,13.68,-266.0
4235.5454,288.042,-198.738,969.229,-2030.0,-5591.25,1828.75,-98.8,18.24,-262.96
4235.5954,283.528,-189.771,969.046,-1531.25,-6352.5,542.5,-86.64,22.8,-247.76
4235.6454,299.998,-195.139,970.449,-2275.0,-6168.75,472.5,-91.2,13.68,-256.88
4235.6954,293.776,-193.126,968.131,-1557.5,-5267.5,490.0,-94.24,6.08,-264.48
4235.7454,298.9,-198.982,968.985,-1120.0,-5398.75,236.25,-89.68,18.24,-266.0
4235.7954,295.789,-189.832,964.898,-988.75,-5775.0,-481.25,-88.16,13.68,-256.88
4235.8454,297.131,-188.673,963.861,-1706.25,-4900.0,-35.0,-97.28,3.04,-264.48
4235.8955,305.0,-190.015,962.702,-2021.25,-4768.75,1137.5,-103.36,7.6,-243.2
4235.9454,297.741,-196.481,966.24,-1767.5,-4515.0,1933.75,-97.28,3.04,-264.48
4235.9954,296.948,-197.701,965.691,-1015.0,-4873.75,1452.5,-97.28,12.16,-267.52
4236.0454,299.083,-189.466,963.068,-1671.25,-4690.0,446.25,-91.2,10.64,-261.44
4236.0954,297.497,-199.043,960.201,-2266.25,-4095.0,201.25,-100.32,18.24,-259.92
4236.1454,306.586,-208.254,964.593,-778.75,-3972.5,603.75,-83.6,16.72,-246.24
4236.1954,289.506,-175.619,969.656,-1198.75,-2563.75,-113.75,-94.24,19.76,-267.52
4236.2454,282.796,-194.712,970.998,-2126.25,-4515.0,1015.0,-98.8,3.04,-249.28
4236.2954,283.894,-196.542,968.68,-1732.5,-5705.0,1496.25,-80.56,15.2,-267.52
4236.3454,285.236,-189.771,966.85,-1146.25,-4838.75,1067.5,-104.88,12.16,-258.4
4236.3954,296.155,-196.664,969.9,-1933.75,-6116.25,262.5,-83.6,4.56,-255.36
4236.4454,294.264,-195.017,964.776,-1592.5,-5477.5,306.25,-94.24,6.08,-253.84
4236.4954,299.144,-197.579,966.301,-1443.75,-6466.25,551.25,-89.68,18.24,-267.52
4236.5454,305.793,-193.553,960.811,-831.25,-5075.0,315.0,-88.16,6.08,-262.96
4236.5954,298.656,-191.906,966.545,-1732.5,-4795.0,70.0,-94.24,13.68,-256.88
4236.6454,301.584,-190.991,964.715,-1855.0,-4961.25,647.5,-97.28,18.24,-232.56
4236.6954,304.329,-195.2,964.105,-1636.25,-4243.75,1085.0,-97.28,10.64,-275.12
4236.7454,295.423,-194.346,963.19,-1347.5,-4366.25,945.0,-104.88,21.28,-261.44
4236.7954,294.63,-194.285,964.349,-1286.25,-4366.25,481.25,-82.08,28.88,-269.04
4236.8454,296.216,-195.322,965.935,-2161.25,-4506.25,210.0,-95.76,3.04,-258.4
4236.8954,306.22,-205.448,965.935,-35.0,-3570.0,-420.0,-91.2,16.72,-273.6
4236.9454,295.789,-178.242,971.669,-665.0,-2310.0,-796.25,-94.24,12.16,-256.88
4236.9954,277.428,-188.734,975.024,-2021.25,-4681.25,315.0,-95.76,16.72,-262.96
4237.0454,294.081,-189.71,970.083,-1881.25,-4812.5,1452.5,-85.12,16.72,-258.4
4237.0954,282.186,-193.309,970.51,-1557.5,-4900.0,1496.25,-112.48,10.64,-269.04
4237.1454,299.083,-196.847,968.741,-2327.5,-5845.0,778.75,-85.12,10.64,-264.48
4237.1954,288.713,-197.091,972.706,-1968.75,-5556.25,61.25,-91.2,27.36,-255.36
4237.2454,297.314,-198.067,963.251,-1365.0,-6282.5,-210.0,-100.32,10.64,-256.88
4237.2954,308.782,-191.174,963.373,-892.5,-5888.75,-743.75,-103.36,19.76,-244.72
4237.3454,303.719,-185.806,962.946,-910.0,-4436.25,-358.75,-91.2,16.72,-267.52
4237.3954,305.305,-185.257,962.702,-2213.75,-5346.25,323.75,-110.96,9.12,-258.4
4237.4454,303.963,-195.383,963.739,-1986.25,-4252.5,490.0,-91.2,13.68,-258.4
4237.4954,298.656,-195.505,965.325,-1286.25,-4488.75,1181.25,-103.36,13.68,-255.36
4237.5455,299.876,-191.174,965.386,-2073.75,-5057.5,323.75,-80.56,25.84,-273.6
4237.5954,306.647,-195.688,958.188,-2642.5,-4707.5,280.0,-109.44,24.32,-250.8
4237.6454,314.882,-203.679,966.179,61.25,-3570.0,437.5,-94.24,31.92,-258.4
4237.6954,298.961,-179.157,964.044,-262.5,-918.75,-70.0,-88.16,13.68,-258.4
4237.7454,286.151,-186.599,970.876,-2677.5,-4427.5,411.25,-95.76,13.68,-252.32
4237.7954,290.177,-198.311,974.353,-1426.25,-3841.25,1557.5,-80.56,22.8,-258.4
4237.8454,282.918,-185.867,970.571,-1732.5,-4077.5,1645.0,-91.2,4.56,-250.8
4237.8954,290.787,-199.775,973.987,-1610.0,-6300.0,796.25,-97.28,6.08,-267.52
4237.9454,282.613,-192.272,973.56,-1540.0,-5906.25,533.75,-83.6,12.16,-250.8
4237.9954,283.833,-194.712,968.985,-1846.25,-7787.5,341.25,-109.44,15.2,-252.32
4238.0454,312.686,-194.895,961.177,-630.0,-5748.75,245.0,-97.28,15.2,-256.88
4238.0954,297.253,-187.88,962.946,-455.0,-5215.0,420.0,-98.8,36.48,-247.76
4238.1454,304.817,-189.527,964.776,-1951.25,-6037.5,393.75,-89.68,21.28,-256.88
4238.1954,301.523,-193.492,964.776,-2047.5,-4716.25,1163.75,-86.64,22.8,-249.28
4238.2454,295.789,-197.579,964.105,-1513.75,-5748.75,1470.0,-107.92,12.16,-247.76
4238.2954,313.54,-193.614,960.994,-2275.0,-5372.5,953.75,-95.76,10.64,-255.36
4238.3454,311.527,-201.605,955.321,-2878.75,-3920.0,927.5,-98.8,13.68,-249.28
4238.3954,316.407,-208.315,963.739,17.5,-3053.75,175.0,-95.76,0.0,-253.84
4238.4454,284.199,-181.475,968.619,-1680.0,-2537.5,-315.0,-98.8,21.28,-256.88
4238.4954,289.201,-190.686,968.009,-2380.0,-4095.0,-8.75,-103.36,15.2,-259.92
4238.5454,299.815,-199.836,966.606,-1216.25,-4235.0,1163.75,-100.32,13.68,-261.44
4238.5954,292.8,-191.296,963.861,-1662.5,-4427.5,1312.5,-89.68,18.24,-256.88
4238.6454,301.035,-200.141,968.985,-1732.5,-4322.5,463.75,-89.68,12.16,-261.44
4238.6954,297.863,-193.065,964.776,-1190.0,-3045.0,-245.0,-91.2,12.16,-270.56
4238.7454,292.129,-195.566,962.519,-1505.0,-3325.0,87.5,-97.28,9.12,-264.48
4238.7954,299.937,-191.906,969.656,-350.0,-2940.0,665.0,-95.76,6.08,-247.76
4238.8454,278.404,-185.989,975.573,-1260.0,-3666.25,481.25,-77.52,19.76,-250.8
4238.8954,287.249,-186.538,972.645,-2345.0,-5005.0,227.5,-100.32,10.64,-247.76
4238.9454,287.066,-196.969,969.9,-1785.0,-4322.5,1146.25,-101.84,16.72,-273.6
4238.9954,281.027,-196.054,969.9,-1216.25,-5057.5,1610.0,-88.16,22.8,-261.44
4239.0454,289.201,-189.71,968.558,-2222.5,-5582.5,1041.25,-88.16,15.2,-261.44
4239.0954,282.064,-198.311,968.436,-2712.5,-6230.0,813.75,-104.88,28.88,-250.8
4239.1454,306.22,-211.304,965.447,-1093.75,-6133.75,350.0,-79.04,10.64,-259.92
4239.1954,291.824,-176.29,966.789,-1968.75,-4410.0,-192.5,-103.36,18.24,-252.32
4239.2454,282.613,-200.202,969.168,-2257.5,-6238.75,1032.5,-92.72,19.76,-249.28
4239.2955,298.9,-198.494,964.349,-1793.75,-6737.5,1697.5,-103.36,9.12,-262.96
4239.3454,293.044,-192.699,967.216,-1820.0,-5993.75,420.0,-95.76,16.72,-261.44
4239.3954,301.035,-202.398,966.301,-2178.75,-6238.75,-411.25,-83.6,15.2,-259.92
4239.4454,303.414,-192.882,963.556,-1671.25,-5188.75,-516.25,-95.76,16.72,-253.84
4239.4954,307.623,-200.019,959.286,-1347.5,-5337.5,-227.5,-98.8,16.72,-258.4
4239.5454,309.697,-197.945,962.336,262.5,-4926.25,542.5,-97.28,18.24,-246.24
4239.5954,300.669,-180.316,961.97,-1951.25,-3736.25,35.0,-101.84,30.4,-252.32
4239.6454,294.203,-196.237,967.948,-2581.25,-4121.25,-70.0,-82.08,22.8,-259.92
4239.6954,296.399,-196.298,969.412,-1601.25,-4751.25,1741.25,-85.12,9.12,-238.64
4239.7454,286.883,-195.383,969.595,-1356.25,-4445.0,525.0,-95.76,25.84,-240.16
4239.7954,279.868,-191.357,973.926,-2695.0,-7953.75,148.75,-97.28,30.4,-267.52
4239.8454,304.817,-201.117,958.188,-2432.5,-5512.5,393.75,-97.28,12.16,-264.48
4239.8954,297.741,-206.912,966.484,-1531.25,-5993.75,-227.5,-100.32,12.16,-266.0
4239.9454,295.789,-177.083,965.081,-1977.5,-5162.5,-1172.5,-79.04,12.16,-264.48
4239.9954,290.543,-201.727,969.717,-1531.25,-7708.75,-8.75,-107.92,15.2,-262.96
4240.0454,311.161,-190.625,963.251,-2012.5,-9905.0,1041.25,-91.2,21.28,-261.44
4240.0954,299.632,-198.433,965.081,-323.75,-4733.75,341.25,-92.72,9.12,-246.24
4240.1454,333.06,-199.958,972.34,-4235.0,-4226.25,271.25,-103.36,13.68,-256.88
4240.1954,321.653,-200.995,952.393,-1645.0,-2940.0,-323.75,-100.32,16.72,-249.28
4240.2454,307.623,-199.226,963.068,-376.25,-3587.5,157.5,-106.4,19.76,-253.84
4240.2954,308.416,-189.1,961.238,201.25,-4786.25,-463.75,-101.84,24.32,-253.84
4240.3454,302.011,-185.318,963.19,-1680.0,-4497.5,-1233.75,-110.96,27.36,-241.68
4240.3954,297.68,-193.065,966.728,-2905.0,-4191.25,262.5,-98.8,12.16,-246.24
4240.4454,300.12,-196.847,964.41,-1233.75,-6483.75,1636.25,-95.76,15.2,-253.84
4240.4954,303.597,-193.248,970.632,-1373.75,-5713.75,1391.25,-95.76,16.72,-266.0
4240.5454,304.878,-186.843,964.288,-1758.75,-5626.25,708.75,-112.48,19.76,-266.0
4240.5954,302.987,-202.215,958.737,-3762.5,-5075.0,525.0,-98.8,27.36,-258.4
4240.6454,327.631,-205.692,959.103,630.0,-4462.5,253.75,-94.24,15.2,-256.88
4240.6954,295.423,-174.399,964.349,-1216.25,-2957.5,682.5,-92.72,15.2,-252.32
4240.7454,301.645,-190.93,969.107,-2703.75,-5775.0,752.5,-95.76,1.52,-247.76
4240.7954,315.431,-205.631,967.643,-1443.75,-5320.0,1303.75,-100.32,10.64,-256.88
4240.8454,302.56,-194.529,962.702,-1435.0,-4935.0,621.25,-104.88,19.76,-240.16
4240.8954,317.2,-202.154,962.641,-1566.25,-4523.75,446.25,-103.36,15.2,-259.92
4240.9455,317.688,-195.749,962.031,-1338.75,-4725.0,140.0,-86.64,13.68,-259.92
4240.9954,305.366,-198.982,960.384,-2161.25,-4795.0,-148.75,-89.68,18.24,-258.4
4241.0454,316.651,-193.553,962.153,-595.0,-2765.0,201.25,-101.84,25.84,-256.88
4241.0954,297.192,-184.037,968.68,-638.75,-3858.75,-201.25,-82.08,15.2,-252.32
4241.1454,303.048,-188.368,965.691,-2231.25,-4602.5,1023.75,-98.8,22.8,-264.48
4241.1954,303.78,-193.614,965.752,-1977.5,-5075.0,2117.5,-95.76,-4.56,-253.84
4241.2454,300.059,-195.993,967.704,-1111.25,-4488.75,1417.5,-77.52,16.72,-264.48
4241.2954,303.414,-193.126,967.277,-2590.0,-6063.75,236.25,-114.0,21.28,-252.32
4241.3454,305.183,-196.054,960.14,-3071.25,-5810.0,402.5,-79.04,21.28,-262.96
4241.3954,324.032,-206.912,961.055,26.25,-4130.0,-52.5,-97.28,10.64,-244.72
4241.4454,303.048,-182.146,961.177,-2196.25,-3596.25,227.5,-89.68,18.24,-253.84
4241.4954,301.035,-194.773,964.654,-3272.5,-4068.75,813.75,-112.48,15.2,-247.76
4241.5454,312.686,-209.901,961.726,-1321.25,-4410.0,1557.5,-104.88,30.4,-276.64
4241.5954,304.207,-196.298,961.36,-813.75,-4095.0,1093.75,-85.12,21.28,-259.92
4241.6454,310.063,-201.483,962.763,-1592.5,-3823.75,8.75,-95.76,12.16,-269.04
4241.6954,301.523,-196.237,965.081,-1653.75,-3771.25,61.25,-95.76,15.2,-259.92
4241.7454,302.316,-197.823,963.434,-1295.0,-4427.5,-35.0,-103.36,31.92,-255.36
4241.7954,301.218,-192.943,964.471,-848.75,-3841.25,183.75,-95.76,13.68,-250.8
4241.8454,299.754,-185.867,965.508,-1303.75,-3605.0,472.5,-97.28,16.72,-253.84
4241.8954,300.364,-195.505,968.68,-2205.0,-4130.0,988.75,-76.0,12.16,-250.8
4241.9454,291.031,-197.64,967.826,-665.0,-4243.75,1820.0,-98.8,10.64,-266.0
4241.9954,296.46,-192.455,969.656,-1050.0,-5171.25,1015.0,-94.24,9.12,-261.44
4242.0454,304.634,-195.383,964.227,-2800.0,-5083.75,-43.75,-92.72,19.76,-264.48
4242.0954,298.473,-201.727,961.543,-2450.0,-4970.0,621.25,-103.36,18.24,-247.76
4242.1454,309.758,-198.006,966.789,840.0,-3972.5,-43.75,-79.04,4.56,-243.2
4242.1954,285.053,-184.647,967.826,-2747.5,-3928.75,560.0,-98.8,12.16,-261.44
4242.2454,291.702,-196.054,964.959,-2625.0,-5783.75,761.25,-100.32,10.64,-275.12
4242.2954,301.828,-201.91,965.508,-1295.0,-4567.5,1268.75,-80.56,10.64,-259.92
4242.3454,304.634,-199.47,964.166,-2502.5,-5941.25,595.0,-98.8,16.72,-259.92
4242.3954,312.564,-203.374,964.166,-1636.25,-4970.0,463.75,-85.12,12.16,-256.88
4242.4454,293.715,-203.74,962.275,-1286.25,-4515.0,323.75,-83.6,-4.56,-247.76
4242.4954,305.488,-201.605,961.909,-761.25,-5223.75,-936.25,-109.44,24.32,-273.6
4242.5454,308.721,-191.967,960.933,-883.75,-3386.25,-1330.0,-88.16,15.2,-252.32
4242.5954,297.985,-186.66,967.033,-2012.5,-4348.75,122.5,-95.76,6.08,-253.84
4242.6454,298.656,-189.893,967.033,-2205.0,-4357.5,1373.75,-95.76,12.16,-255.36
4242.6955,297.924,-201.727,967.216,-971.25,-4208.75,1933.75,-72.96,15.2,-261.44
4242.7454,295.179,-188.246,964.898,-1601.25,-5293.75,953.75,-95.76,0.0,-264.48
4242.7954,302.316,-201.483,959.774,-3202.5,-4795.0,638.75,-101.84,12.16,-258.4
4242.8454,312.259,-205.021,966.118,402.5,-4261.25,122.5,-85.12,15.2,-252.32
4242.8954,295.179,-179.889,965.691,-1155.0,-2931.25,437.5,-91.2,19.76,-264.48
4242.9454,295.911,-197.945,969.473,-2511.25,-5687.5,1260.0,-91.2,13.68,-267.52
4242.9954,305.488,-199.226,962.153,-1470.0,-4978.75,1706.25,-91.2,16.72,-259.92
4243.0454,294.447,-194.956,964.044,-1898.75,-4803.75,1365.0,-97.28,22.8,-267.52
4243.0954,310.49,-205.265,962.153,-1155.0,-5363.75,831.25,-91.2,24.32,-264.48
4243.1454,305.244,-196.359,966.606,-1233.75,-3788.75,253.75,-89.68,18.24,-258.4
4243.1954,293.532,-199.836,962.885,-1050.0,-5722.5,-323.75,-92.72,28.88,-256.88
4243.2454,306.098,-192.455,963.434,-358.75,-4278.75,192.5,-100.32,4.56,-244.72
4243.2954,297.985,-186.294,966.24,-700.0,-4156.25,647.5,-106.4,16.72,-246.24
4243.3454,301.035,-192.638,968.009,-2021.25,-5083.75,752.5,-89.68,1.52,-252.32
4243.3954,301.889,-196.359,967.826,-1627.5,-4033.75,1163.75,-97.28,6.08,-247.76
4243.4454,289.872,-193.309,969.717,-1242.5,-5775.0,1365.0,-94.24,24.32,-269.04
4243.4954,303.597,-197.579,962.58,-2817.5,-5538.75,857.5,-82.08,21.28,-267.52
4243.5454,299.205,-206.668,962.214,-2065.0,-5337.5,962.5,-103.36,28.88,-255.36
4243.5954,318.298,-200.751,962.336,323.75,-4200.0,-262.5,-91.2,34.96,-259.92
4243.6454,285.785,-189.771,967.155,-1732.5,-3998.75,437.5,-94.24,13.68,-259.92
4243.6954,295.362,-193.919,965.874,-2327.5,-5302.5,630.0,-86.64,18.24,-269.04
4243.7454,304.573,-203.862,965.325,-1837.5,-3998.75,1347.5,-91.2,12.16,-253.84
4243.7954,288.286,-195.81,965.081,-1260.0,-4970.0,1758.75,-104.88,1.52,-258.4
4243.8454,312.442,-203.801,966.423,-1400.0,-4795.0,726.25,-97.28,28.88,-256.88
4243.8954,292.8,-196.298,963.312,-1802.5,-4112.5,-17.5,-95.76,27.36,-256.88
4243.9454,295.789,-200.141,965.569,-1435.0,-5722.5,-271.25,-92.72,21.28,-247.76
4243.9954,305.915,-193.187,962.641,-481.25,-3631.25,43.75,-100.32,24.32,-250.8
4244.0454,294.63,-185.074,962.885,-1225.0,-4112.5,446.25,-114.0,18.24,-258.4
4244.0954,304.39,-193.797,965.325,-2327.5,-4226.25,1303.75,-79.04,28.88,-269.04
4244.1454,289.994,-201.117,969.351,-1671.25,-4138.75,1995.0,-91.2,10.64,-261.44
4244.1954,289.323,-204.411,966.972,-1128.75,-4987.5,1312.5,-97.28,13.68,-253.84
4244.2454,303.658,-195.81,964.044,-2003.75,-4558.75,236.25,-98.8,19.76,-237.12
4244.2954,300.974,-205.387,961.848,-2266.25,-5363.75,350.0,-95.76,18.24,-273.6
4244.3454,313.54,-209.291,966.423,385.0,-3736.25,113.75,-101.84,13.68,-264.48
4244.3954,279.197,-183.061,970.022,-2126.25,-3832.5,341.25,-83.6,19.76,-255.36
4244.4455,290.299,-197.64,970.327,-2485.0,-5705.0,717.5,-91.2,12.16,-249.28
4244.4954,298.351,-205.997,964.898,-1610.0,-4453.75,1435.0,-101.84,22.8,-258.4
4244.5454,290.848,-194.712,962.946,-1697.5,-5591.25,840.0,-92.72,16.72,-258.4
4244.5954,306.891,-205.509,968.07,-1618.75,-4952.5,481.25,-98.8,12.16,-264.48
4244.6454,288.713,-195.322,965.63,-1697.5,-4401.25,-140.0,-95.76,30.4,-266.0
4244.6954,293.532,-199.287,963.556,-1732.5,-5880.0,-262.5,-95.76,21.28,-255.36
4244.7454,302.804,-194.041,963.007,-603.75,-3928.75,638.75,-91.2,15.2,-279.68
4244.7954,291.763,-187.575,967.399,-1776.25,-4655.0,463.75,-100.32,19.76,-259.92
4244.8454,299.083,-194.834,966.606,-2415.0,-5215.0,1146.25,-91.2,3.04,-249.28
4244.8954,291.275,-202.337,965.874,-1583.75,-4506.25,1793.75,-91.2,7.6,-273.6
4244.9454,286.334,-203.923,966.179,-1513.75,-5337.5,1452.5,-91.2,12.16,-261.44
4244.9954,302.255,-195.505,964.044,-2021.25,-5372.5,280.0,-95.76,25.84,-272.08
4245.0454,293.41,-205.814,961.909,-2450.0,-5748.75,717.5,-83.6,24.32,-266.0
4245.0954,314.882,-213.805,963.312,-743.75,-5022.5,210.0,-92.72,16.72,-250.8
4245.1454,292.8,-177.571,964.288,-1890.0,-3333.75,-245.0,-86.64,18.24,-261.44
4245.1954,289.994,-201.605,966.972,-2598.75,-5705.0,743.75,-98.8,19.76,-255.36
4245.2454,306.098,-207.766,962.641,-1916.25,-5486.25,1863.75,-100.32,13.68,-255.36
4245.2954,290.421,-198.311,961.665,-953.75,-4882.5,1260.0,-95.76,10.64,-270.56
4245.3454,302.743,-202.886,964.837,-1986.25,-5355.0,253.75,-88.16,30.4,-246.24
4245.3954,296.399,-199.104,965.935,-1470.0,-3841.25,-341.25,-88.16,12.16,-261.44
4245.4454,301.401,-197.762,962.336,-1050.0,-4900.0,-332.5,-100.32,18.24,-252.32
4245.4954,301.889,-195.444,963.068,-743.75,-4515.0,577.5,-83.6,13.68,-249.28
4245.5454,293.166,-189.649,966.484,-1487.5,-3675.0,603.75,-97.28,6.08,-264.48
4245.5954,295.789,-190.869,964.288,-2135.0,-4856.25,726.25,-92.72,28.88,-255.36
4245.6454,294.386,-203.252,968.802,-1968.75,-4305.0,1592.5,-89.68,22.8,-252.32
4245.6954,291.458,-202.825,964.105,-1496.25,-4873.75,1146.25,-100.32,18.24,-250.8
4245.7454,296.826,-201.3,968.07,-1172.5,-4917.5,743.75,-80.56,33.44,-247.76
4245.7954,300.059,-195.749,963.373,-2117.5,-4900.0,218.75,-106.4,10.64,-270.56
4245.8454,310.551,-212.646,963.556,-1128.75,-4068.75,726.25,-85.12,7.6,-269.04
4245.8954,299.693,-189.588,973.438,280.0,-2668.75,-253.75,-88.16,21.28,-269.04
4245.9454,278.465,-196.237,968.924,-2931.25,-4252.5,551.25,-94.24,22.8,-246.24
4245.9954,294.63,-203.557,967.216,-1986.25,-5757.5,1723.75,-80.56,24.32,-256.88
4246.0454,291.824,-204.533,965.508,-936.25,-3858.75,1653.75,-86.64,15.2,-259.92
4246.0954,300.242,-203.496,964.41,-2397.5,-5468.75,437.5,-103.36,22.8,-259.92
4246.1454,303.658,-205.082,967.46,-1286.25,-3307.5,-43.75,-95.76,36.48,-264.48
4246.1955,284.565,-203.313,967.765,-1303.75,-4987.5,350.0,-94.24,15.2,-255.36
4246.2454,301.035,-197.701,963.495,-988.75,-5118.75,516.25,-89.68,31.92,-259.92
4246.2954,292.983,-195.505,966.118,-1207.5,-3858.75,411.25,-86.64,27.36,-261.44
4246.3454,281.332,-190.686,972.401,-1723.75,-5005.0,621.25,-88.16,19.76,-273.6
4246.3954,283.284,-195.993,973.194,-2528.75,-5573.75,1128.75,-95.76,22.8,-262.96
4246.4454,276.757,-194.346,971.242,-980.0,-7533.75,1041.25,-85.12,3.04,-252.32
4246.4954,304.39,-173.972,970.388,-1198.75,-7840.0,665.0,-88.16,28.88,-269.04
4246.5454,299.266,-181.597,959.713,-5075.0,-6160.0,-490.0,-92.72,28.88,-266.0
4246.5954,280.844,-210.999,967.521,-4873.75,-6422.5,-280.0,-101.84,15.2,-249.28
4246.6454,293.288,-239.852,972.767,-2581.25,-8190.0,1435.0,-86.64,30.4,-250.8
4246.6954,288.53,-198.982,966.789,-1478.75,-5705.0,-2642.5,-89.68,22.8,-246.24
4246.7454,301.706,-208.742,961.116,-3298.75,-11208.75,-201.25,-98.8,12.16,-249.28
4246.7954,331.657,-220.576,951.051,-323.75,-9843.75,1688.75,-104.88,28.88,-256.88
4246.8454,324.276,-193.858,946.171,-4322.5,-5871.25,-2327.5,-98.8,22.8,-266.0
4246.8954,327.57,-235.033,953.186,-3106.25,-7175.0,-1050.0,-109.44,22.8,-243.2
4246.9454,338.184,-197.396,950.502,1216.25,-3500.0,-280.0,-97.28,13.68,-262.96
4246.9954,313.967,-200.202,957.395,-2222.5,-3981.25,-3360.0,-82.08,21.28,-250.8
4247.0454,322.995,-207.949,961.482,-113.75,-5696.25,-2415.0,-92.72,13.68,-261.44
4247.0954,328.18,-182.878,952.698,1330.0,-4322.5,673.75,-98.8,22.8,-244.72
4247.1454,328.241,-182.024,956.053,-1671.25,-3430.0,560.0,-83.6,18.24,-264.48
4247.1954,328.119,-201.056,951.417,-2231.25,-2878.75,2030.0,-88.16,19.76,-246.24
4247.2454,313.235,-183.793,958.92,-638.75,-761.25,358.75,-112.48,27.36,-252.32
4247.2954,300.974,-194.041,958.066,-3736.25,-3062.5,656.25,-106.4,15.2,-272.08
4247.3454,319.396,-220.515,957.029,183.75,-1540.0,1120.0,-92.72,9.12,-255.36
4247.3954,308.05,-191.296,965.264,253.75,656.25,-2213.75,-98.8,25.84,-253.84
4247.4454,286.944,-191.479,969.839,-1303.75,113.75,-3395.0,-98.8,10.64,-282.72
4247.4954,279.136,-194.163,976.305,-1513.75,-2747.5,-1260.0,-88.16,16.72,-258.4
4247.5454,284.87,-212.89,975.024,52.5,-6623.75,3281.25,-94.24,10.64,-250.8
4247.5954,304.451,-186.477,950.319,341.25,-4978.75,3570.0,-79.04,10.64,-259.92
4247.6454,306.464,-216.184,967.277,-1067.5,-1977.5,-4033.75,-97.28,12.16,-262.96
4247.6954,287.493,-201.544,968.619,-665.0,-1618.75,-4208.75,-97.28,16.72,-267.52
4247.7454,288.774,-197.457,970.937,288.75,-4681.25,-2983.75,-89.68,22.8,-261.44
4247.7954,306.464,-185.989,968.863,2082.5,-4803.75,-3806.25,-92.72,7.6,-269.04
4247.8455,297.741,-164.151,970.205,-612.5,-2415.0,-3657.5,-97.28,0.0,-256.88
4247.8954,289.628,-152.134,972.706,-1741.25,-2870.0,-2117.5,-82.08,19.76,-276.64
4247.9454,284.809,-181.048,975.939,-2397.5,-3701.25,805.0,-95.76,0.0,-259.92
4247.9954,279.014,-149.999,979.355,-2283.75,-3368.75,1575.0,-107.92,22.8,-253.84
4248.0454,291.092,-168.299,967.643,-4515.0,-7166.25,700.0,-88.16,0.0,-258.4
4248.0954,298.778,-194.407,957.09,-6895.0,-7262.5,4278.75,-83.6,6.08,-249.28
4248.1454,327.204,-204.777,967.826,1417.5,-2336.25,525.0,-89.68,13.68,-270.56
4248.1954,282.369,-176.595,968.802,-96.25,743.75,-1041.25,-85.12,10.64,-281.2
4248.2454,266.265,-170.129,978.074,-253.75,-3745.0,717.5,-92.72,19.76,-256.88
4248.2954,285.785,-174.643,980.087,-735.0,-3220.0,2817.5,-91.2,10.64,-252.32
4248.3454,266.997,-165.798,976.854,-2222.5,-3998.75,2047.5,-91.2,16.72,-273.6
4248.3954,273.951,-178.608,982.344,-3010.0,-5792.5,96.25,-89.68,9.12,-256.88
4248.4454,280.783,-181.841,977.342,-3237.5,-6685.0,1916.25,-106.4,6.08,-253.84
4248.4954,274.5,-183.549,969.351,-4366.25,-9117.5,3736.25,-94.24,-4.56,-252.32
4248.5454,289.445,-216.123,973.682,-2012.5,-9940.0,2213.75,-98.8,4.56,-246.24
4248.5954,301.096,-201.3,963.007,-2213.75,-9205.0,350.0,-91.2,19.76,-273.6
4248.6454,318.542,-201.239,946.842,-1557.5,-6405.0,-271.25,-86.64,13.68,-259.92
4248.6954,326.533,-196.847,954.589,-341.25,-3097.5,2012.5,-110.96,22.8,-253.84
4248.7454,303.17,-195.261,959.469,-297.5,-1522.5,787.5,-98.8,21.28,-269.04
4248.7954,291.153,-185.928,966.728,-1671.25,-2922.5,-1058.75,-100.32,9.12,-259.92
4248.8454,300.547,-192.821,965.691,-1732.5,-3893.75,-245.0,-94.24,9.12,-255.36
4248.8954,307.684,-200.507,967.704,-402.5,-3666.25,700.0,-94.24,16.72,-267.52
4248.9454,292.861,-174.033,967.521,-1102.5,-1898.75,262.5,-85.12,12.16,-256.88
4248.9954,284.626,-182.878,969.534,-2345.0,-2406.25,-236.25,-98.8,3.04,-273.6
4249.0454,286.212,-189.954,973.316,-1688.75,-3508.75,1102.5,-100.32,10.64,-262.96
4249.0954,285.602,-190.259,972.035,-551.25,-2730.0,1986.25,-100.32,0.0,-261.44
4249.1454,272.365,-187.392,978.623,-1776.25,-5355.0,1058.75,-86.64,15.2,-255.36
4249.1954,279.441,-181.658,980.697,-1898.75,-6588.75,586.25,-97.28,-3.04,-253.84
4249.2454,276.879,-191.845,972.279,-2773.75,-7665.0,708.75,-85.12,16.72,-262.96
4249.2954,295.362,-190.869,971.791,-813.75,-7918.75,647.5,-94.24,10.64,-259.92
4249.3454,293.471,-182.207,967.216,-1496.25,-7743.75,612.5,-92.72,6.08,-272.08
4249.3954,306.952,-186.965,961.36,-2187.5,-7122.5,1155.0,-89.68,27.36,-253.84
4249.4454,312.625,-192.821,957.7,-1828.75,-5643.75,770.0,-92.72,9.12,-256.88
4249.4954,302.56,-195.383,961.665,-1636.25,-4873.75,647.5,-106.4,4.56,-258.4
4249.5454,306.891,-187.758,960.75,-577.5,-3368.75,665.0,-92.72,13.68,-266.0
4249.5955,302.621,-186.294,963.983,-2397.5,-5057.5,183.75,-92.72,4.56,-252.32
4249.6454,311.832,-201.666,963.373,-1986.25,-4217.5,665.0,-106.4,16.72,-252.32
4249.6954,299.754,-176.717,966.423,105.0,-2607.5,-175.0,-92.72,12.16,-259.92
4249.7454,286.212,-178.364,967.643,-2607.5,-3150.0,323.75,-100.32,6.08,-258.4
4249.7954,296.216,-190.808,966.972,-1715.0,-3648.75,1522.5,-103.36,16.72,-264.48
4249.8454,287.371,-190.503,968.619,-665.0,-3062.5,2012.5,-95.76,7.6,-258.4
4249.8954,286.334,-187.941,972.218,-2047.5,-4558.75,1076.25,-77.52,16.72,-253.84
4249.9454,286.456,-188.063,973.011,-1697.5,-4830.0,-253.75,-86.64,12.16,-256.88
4249.9954,283.284,-190.93,972.645,-2432.5,-5617.5,43.75,-95.76,3.04,-258.4
4250.0454,291.336,-195.627,972.157,-1496.25,-6816.25,245.0,-95.76,19.76,-258.4
4250.0954,295.423,-186.233,964.654,-1610.0,-5670.0,148.75,-91.2,4.56,-266.0
4250.1454,293.044,-186.111,966.362,-2318.75,-5871.25,-525.0,-98.8,12.16,-261.44
4250.1954,308.721,-190.991,962.641,-2056.25,-5293.75,-8.75,-72.96,25.84,-264.48
4250.2454,296.948,-198.921,965.02,-1653.75,-4436.25,796.25,-86.64,13.68,-255.36
4250.2954,301.889,-187.636,967.094,-822.5,-5223.75,446.25,-100.32,31.92,-261.44
4250.3454,306.586,-194.163,963.495,-3036.25,-4392.5,131.25,-98.8,27.36,-259.92
4250.3954,300.486,-201.178,962.519,-1820.0,-4235.0,183.75,-103.36,3.04,-252.32
4250.4454,306.83,-182.817,966.179,0.0,-2870.0,-385.0,-91.2,31.92,-249.28
4250.4954,286.639,-184.708,971.608,-1951.25,-3351.25,122.5,-91.2,19.76,-266.0
4250.5454,287.737,-188.795,970.693,-2266.25,-4541.25,1260.0,-100.32,4.56,-264.48
4250.5954,294.569,-195.566,971.242,-1338.75,-4480.0,2003.75,-89.68,15.2,-250.8
4250.6454,285.846,-187.331,971.364,-1776.25,-4593.75,1610.0,-101.84,6.08,-259.92
4250.6954,295.545,-196.42,969.046,-1855.0,-5223.75,516.25,-94.24,1.52,-258.4
4250.7454,285.907,-190.991,969.473,-2231.25,-5048.75,516.25,-83.6,7.6,-262.96
4250.7954,290.726,-201.483,967.643,-1391.25,-5801.25,708.75,-101.84,13.68,-262.96
4250.8454,300.791,-188.917,970.083,-1268.75,-6002.5,192.5,-80.56,13.68,-261.44
4250.8954,289.567,-187.392,965.63,-1846.25,-6011.25,-350.0,-92.72,13.68,-249.28
4250.9454,299.449,-194.956,968.924,-2012.5,-6020.0,271.25,-91.2,7.6,-269.04
4250.9954,295.606,-197.823,967.277,-1190.0,-5503.75,971.25,-86.64,13.68,-253.84
4251.0454,300.974,-192.272,962.763,-822.5,-6072.5,708.75,-98.8,3.04,-266.0
4251.0954,307.989,-190.686,960.811,-2537.5,-5416.25,236.25,-104.88,25.84,-264.48
4251.1454,312.625,-206.668,957.822,-1155.0,-5145.0,376.25,-88.16,7.6,-261.44
4251.1954,322.995,-186.843,962.58,778.75,-2826.25,-236.25,-97.28,12.16,-255.36
4251.2454,282.857,-181.719,968.68,-2406.25,-3543.75,245.0,-97.28,22.8,-262.96
4251.2954,299.815,-193.858,968.192,-2021.25,-4200.0,1242.5,-91.2,1.52,-255.36
4251.3454,293.471,-191.601,971.364,-1181.25,-4121.25,1741.25,-104.88,3.04,-262.96
4251.3954,293.593,-193.797,968.985,-2126.25,-4978.75,1251.25,-82.08,12.16,-255.36
4251.4454,304.39,-197.823,966.24,-1076.25,-4331.25,796.25,-91.2,13.68,-266.0
4251.4954,276.33,-188.612,969.412,-1855.0,-5048.75,761.25,-82.08,10.64,-261.44
4251.5454,302.194,-203.252,966.972,-393.75,-5040.0,516.25,-83.6,7.6,-250.8
4251.5954,291.824,-184.464,970.327,-306.25,-4655.0,-245.0,-94.24,10.64,-259.92
4251.6454,291.275,-185.745,967.582,-2003.75,-5110.0,35.0,-94.24,21.28,-261.44
4251.6954,297.68,-192.76,966.118,-1802.5,-5477.5,796.25,-89.68,0.0,-266.0
4251.7454,291.397,-191.784,965.569,-1627.5,-5083.75,1321.25,-88.16,1.52,-267.52
4251.7954,290.177,-192.638,970.266,-1531.25,-5530.0,936.25,-94.24,15.2,-259.92
4251.8454,297.558,-187.148,967.155,-2607.5,-6317.5,262.5,-89.68,21.28,-258.4
4251.8954,301.889,-203.069,956.419,-2537.5,-5153.75,105.0,-101.84,21.28,-264.48
4251.9454,300.852,-206.058,969.717,192.5,-5363.75,315.0,-92.72,22.8,-269.04
4251.9954,298.717,-175.253,966.606,-1820.0,-3018.75,0.0,-110.96,22.8,-272.08
4252.0454,284.077,-196.603,971.425,-2660.0,-5705.0,280.0,-103.36,31.92,-266.0
4252.0954,302.743,-198.738,965.02,-1426.25,-5871.25,1268.75,-101.84,21.28,-255.36
4252.1454,296.277,-189.893,965.264,-1391.25,-4681.25,1268.75,-95.76,12.16,-266.0
4252.1954,305.122,-196.42,959.774,-1513.75,-3990.0,-122.5,-89.68,9.12,-258.4
4252.2454,302.438,-191.113,968.131,-2170.0,-2966.25,586.25,-86.64,13.68,-258.4
4252.2954,289.445,-199.47,968.07,-1015.0,-5066.25,507.5,-104.88,16.72,-247.76
4252.3454,307.44,-193.309,965.569,-420.0,-4261.25,157.5,-97.28,13.68,-261.44
4252.3954,286.578,-181.963,969.107,-1452.5,-3482.5,-122.5,-95.76,18.24,-266.0
4252.4454,293.41,-193.614,969.534,-2012.5,-4532.5,1085.0,-94.24,9.12,-249.28
4252.4954,299.815,-193.065,969.595,-1190.0,-4401.25,1811.25,-100.32,6.08,-256.88
4252.5454,283.955,-198.006,970.815,-1575.0,-4970.0,1303.75,-76.0,12.16,-264.48
4252.5954,293.898,-194.59,970.449,-1400.0,-4777.5,332.5,-86.64,13.68,-261.44
4252.6454,292.007,-192.516,964.532,-2721.25,-4926.25,43.75,-98.8,24.32,-272.08
4252.6954,311.1,-210.389,967.094,-472.5,-4585.0,743.75,-91.2,25.84,-255.36
4252.7454,294.447,-177.998,967.46,-70.0,-3018.75,70.0,-97.28,24.32,-249.28
4252.7954,284.26,-191.723,972.279,-2791.25,-4655.0,490.0,-100.32,7.6,-262.96
4252.8454,288.652,-195.566,967.948,-2222.5,-5460.0,1277.5,-82.08,19.76,-266.0
4252.8954,288.591,-197.579,966.301,-927.5,-4313.75,1540.0,-92.72,13.68,-258.4
4252.9454,296.094,-198.311,968.314,-2248.75,-5153.75,945.0,-101.84,28.88,-256.88
4252.9955,295.728,-200.69,968.619,-1356.25,-4497.5,175.0,-98.8,7.6,-244.72
4253.0454,290.421,-195.139,964.288,-1426.25,-4943.75,-70.0,-97.28,12.16,-253.84
4253.0954,301.828,-191.052,967.216,-901.25,-4567.5,96.25,-101.84,16.72,-243.2
4253.1454,291.397,-186.843,965.447,-971.25,-4016.25,385.0,-89.68,13.68,-252.32
4253.1954,292.739,-187.636,969.107,-2353.75,-4830.0,428.75,-101.84,12.16,-264.48
4253.2454,294.63,-193.614,969.351,-2187.5,-4453.75,980.0,-91.2,21.28,-264.48
4253.2954,289.994,-189.527,964.654,-1198.75,-4278.75,1566.25,-98.8,6.08,-262.96
4253.3454,290.97,-191.662,970.876,-2082.5,-5302.5,603.75,-91.2,12.16,-270.56
4253.3954,280.844,-196.176,975.817,-481.25,-6361.25,1172.5,-91.2,-3.04,-255.36
4253.4454,303.292,-202.032,967.155,-2625.0,-6720.0,1233.75,-103.36,13.68,-253.84
4253.4954,305.976,-204.655,970.022,-472.5,-5197.5,-481.25,-88.16,15.2,-247.76
4253.5454,285.541,-185.013,962.092,-3211.25,-3535.0,245.0,-88.16,9.12,-269.04
4253.5954,284.321,-193.248,972.218,-1706.25,-4515.0,1653.75,-89.68,0.0,-266.0
4253.6454,291.519,-203.496,972.828,-1006.25,-6483.75,2065.0,-79.04,22.8,-255.36
4253.6954,277.855,-190.076,969.229,-1916.25,-7201.25,1338.75,-85.12,25.84,-255.36
4253.7454,300.669,-211.365,968.07,-472.5,-7708.75,-568.75,-95.76,10.64,-261.44
4253.7954,300.974,-203.618,967.338,446.25,-8102.5,-341.25,-104.88,27.36,-250.8
4253.8454,328.851,-197.091,960.323,-665.0,-4996.25,113.75,-94.24,10.64,-266.0
4253.8954,307.562,-199.409,967.338,-463.75,-4165.0,-210.0,-92.72,16.72,-259.92
4253.9454,310.429,-185.379,959.225,-5022.5,-3386.25,-472.5,-88.16,4.56,-252.32
4253.9954,310.246,-194.163,959.896,-1128.75,-3543.75,962.5,-85.12,10.64,-256.88
4254.0454,305.061,-192.089,964.105,-813.75,-3543.75,1181.25,-94.24,18.24,-273.6
4254.0954,290.36,-192.394,969.229,-1715.0,-5503.75,35.0,-104.88,16.72,-250.8
4254.1454,301.584,-188.246,968.07,-2931.25,-6098.75,157.5,-98.8,13.68,-247.76
4254.1954,303.17,-199.714,959.469,-2152.5,-9581.25,1408.75,-79.04,16.72,-264.48
4254.2454,319.396,-201.056,963.617,752.5,-4156.25,402.5,-100.32,12.16,-244.72
4254.2954,304.39,-185.806,967.46,166.25,-4121.25,402.5,-86.64,31.92,-249.28
4254.3454,292.129,-193.675,965.63,-2520.0,-4996.25,455.0,-106.4,24.32,-261.44
4254.3954,316.834,-205.57,961.421,-1286.25,-4707.5,1225.0,-104.88,10.64,-259.92
4254.4454,309.88,-193.553,956.297,-1137.5,-4261.25,1120.0,-85.12,10.64,-256.88
4254.4954,310.917,-194.712,966.484,-1557.5,-2572.5,17.5,-107.92,7.6,-253.84
4254.5454,292.495,-188.246,970.815,-2108.75,-3683.75,-691.25,-94.24,16.72,-250.8
4254.5954,303.658,-199.653,967.826,-1942.5,-6737.5,-420.0,-106.4,21.28,-259.92
4254.6454,322.202,-188.246,960.689,-1995.0,-6300.0,-525.0,-98.8,15.2,-256.88
4254.6954,305.0,-181.658,962.458,-2668.75,-4086.25,-341.25,-94.24,25.84,-272.08
4254.7455,310.917,-197.457,960.872,-3333.75,-4313.75,603.75,-114.0,6.08,-272.08
4254.7954,312.93,-202.764,966.789,-2318.75,-3613.75,1601.25,-97.28,25.84,-256.88
4254.8454,306.769,-202.154,954.284,-1706.25,-3780.0,1732.5,-94.24,3.04,-266.0
4254.8954,316.468,-197.396,959.774,-1155.0,-4663.75,1837.5,-85.12,15.2,-273.6
4254.9454,304.878,-200.934,960.689,-1758.75,-1951.25,1207.5,-89.68,18.24,-259.92
4254.9954,315.98,-209.84,967.826,-822.5,-5110.0,-883.75,-95.76,15.2,-241.68
4255.0454,305.183,-190.015,963.129,-700.0,-1968.75,-1120.0,-101.84,27.36,-256.88
4255.0954,300.73,-193.98,962.519,-3403.75,-4007.5,901.25,-86.64,6.08,-256.88
4255.1454,307.44,-207.888,961.116,-2135.0,-1802.5,1828.75,-94.24,28.88,-252.32
4255.1954,299.449,-204.594,967.704,-1076.25,-1881.25,796.25,-97.28,9.12,-255.36
4255.2454,279.197,-204.777,971.303,-1758.75,-2695.0,-735.0,-112.48,18.24,-261.44
4255.2954,303.353,-194.285,963.678,-1662.5,-4068.75,-1443.75,-89.68,25.84,-253.84
4255.3454,290.177,-195.383,966.728,-1435.0,-4138.75,-691.25,-80.56,24.32,-267.52
4255.3954,300.669,-197.335,966.423,-691.25,-3193.75,210.0,-100.32,7.6,-261.44
4255.4454,292.861,-191.296,967.094,-665.0,-2353.75,70.0,-95.76,31.92,-252.32
4255.4954,281.515,-188.795,969.351,-2170.0,-4401.25,-8.75,-92.72,36.48,-256.88
4255.5454,290.543,-198.067,969.351,-2213.75,-4296.25,831.25,-94.24,27.36,-261.44
4255.5954,282.552,-200.324,969.351,-1155.0,-4733.75,1540.0,-82.08,24.32,-278.16
4255.6454,291.946,-191.54,967.46,-2065.0,-5871.25,1155.0,-100.32,7.6,-266.0
4255.6954,292.983,-198.25,966.118,-2625.0,-4830.0,761.25,-92.72,15.2,-264.48
4255.7454,303.353,-211.487,968.558,-813.75,-4488.75,-87.5,-101.84,16.72,-258.4
4255.7954,286.7,-183.549,966.423,-1741.25,-4208.75,105.0,-103.36,15.2,-267.52
4255.8454,287.249,-196.359,967.948,-2406.25,-5031.25,866.25,-88.16,21.28,-258.4
4255.8954,301.34,-201.849,966.85,-1601.25,-5932.5,1452.5,-97.28,16.72,-258.4
4255.9454,294.569,-199.104,966.301,-1898.75,-4488.75,1015.0,-89.68,21.28,-241.68
4255.9954,295.301,-203.191,965.996,-1522.5,-5197.5,717.5,-97.28,22.8,-252.32
4256.0454,288.652,-196.42,963.678,-1776.25,-4208.75,411.25,-104.88,13.68,-256.88
4256.0954,286.029,-203.13,968.68,-1408.75,-5591.25,61.25,-94.24,36.48,-267.52
4256.1454,300.242,-195.871,964.41,-708.75,-5381.25,-647.5,-79.04,18.24,-264.48
4256.1954,293.166,-188.856,965.142,-1688.75,-4550.0,-560.0,-100.32,13.68,-262.96
4256.2454,294.874,-191.784,968.192,-2100.0,-4716.25,306.25,-101.84,28.88,-262.96
4256.2954,291.336,-201.483,966.606,-1146.25,-4523.75,1513.75,-89.68,25.84,-272.08
4256.3454,290.848,-194.285,966.24,-813.75,-5241.25,1260.0,-101.84,4.56,-264.48
4256.3954,300.974,-193.858,965.935,-2948.75,-5337.5,525.0,-85.12,10.64,-261.44
4256.4454,304.756,-211.243,963.922,-1671.25,-5057.5,315.0,-95.76,16.72,-270.56
4256.4955,308.782,-195.749,966.423,148.75,-3333.75,420.0,-97.28,19.76,-256.88
4256.5454,277.611,-188.307,969.595,-1986.25,-4410.0,761.25,-85.12,12.16,-252.32
4256.5954,291.275,-198.616,967.582,-2485.0,-5171.25,1400.0,-106.4,22.8,-249.28
4256.6454,299.022,-200.629,965.203,-1400.0,-4480.0,1225.0,-83.6,21.28,-264.48
4256.6954,296.826,-201.605,964.349,-2065.0,-5302.5,927.5,-82.08,13.68,-256.88
4256.7454,303.658,-200.202,966.057,-1400.0,-4593.75,630.0,-95.76,21.28,-269.04
4256.7954,281.454,-207.095,970.815,-1951.25,-4226.25,857.5,-95.76,19.76,-258.4
4256.8454,299.144,-197.152,965.203,-411.25,-5512.5,367.5,-103.36,15.2,-261.44
4256.8954,298.778,-193.553,964.471,-1067.5,-4016.25,-43.75,-86.64,34.96,-259.92
4256.9454,287.005,-190.259,969.473,-1872.5,-4567.5,-323.75,-97.28,7.6,-262.96
4256.9954,295.362,-200.263,966.85,-2030.0,-4978.75,770.0,-95.76,-3.04,-256.88
4257.0454,288.469,-201.971,970.022,-962.5,-4270.0,1680.0,-91.2,7.6,-258.4
4257.0954,292.068,-191.662,963.556,-2502.5,-6160.0,805.0,-94.24,27.36,-246.24
4257.1454,300.303,-202.703,963.312,-3053.75,-4795.0,350.0,-83.6,33.44,-252.32
4257.1954,303.841,-214.293,968.558,490.0,-4340.0,262.5,-82.08,16.72,-256.88
4257.2454,294.691,-183.427,963.983,-8.75,-2590.0,-52.5,-72.96,10.64,-264.48
4257.2954,280.173,-194.773,972.828,-2765.0,-4777.5,402.5,-97.28,22.8,-252.32
4257.3454,289.811,-200.507,968.009,-1365.0,-5276.25,1802.5,-89.68,19.76,-267.52
4257.3954,286.09,-193.98,966.606,-1268.75,-4970.0,1330.0,-91.2,15.2,-253.84
4257.4454,299.754,-202.52,968.558,-1732.5,-4987.5,1128.75,-94.24,18.24,-247.76
4257.4954,284.687,-194.163,969.107,-1496.25,-5118.75,857.5,-91.2,-4.56,-267.52
4257.5454,292.8,-198.372,964.227,-1855.0,-6037.5,735.0,-92.72,19.76,-258.4
4257.5954,301.645,-198.006,961.665,-350.0,-4375.0,1198.75,-91.2,10.64,-259.92
4257.6454,294.081,-193.126,964.532,-708.75,-3780.0,1207.5,-91.2,25.84,-270.56
4257.6954,296.277,-193.98,965.142,-2476.25,-4340.0,1400.0,-92.72,27.36,-261.44
4257.7454,288.957,-206.119,965.63,-1443.75,-3237.5,2065.0,-89.68,13.68,-240.16
4257.7954,283.101,-203.496,967.338,-665.0,-4637.5,2012.5,-101.84,33.44,-255.36
4257.8454,295.85,-196.298,965.02,-2047.5,-3963.75,770.0,-98.8,13.68,-244.72
4257.8954,285.175,-205.448,964.471,-2493.75,-3762.5,638.75,-77.52,24.32,-253.84
4257.9454,303.841,-210.267,968.985,175.0,-3981.25,192.5,-109.44,15.2,-259.92
4257.9954,273.463,-187.026,971.486,-1277.5,-2371.25,288.75,-91.2,33.44,-249.28
4258.0454,275.171,-193.431,970.388,-2388.75,-4961.25,350.0,-88.16,18.24,-281.2
4258.0954,288.957,-202.642,972.279,-1793.75,-4077.5,1233.75,-95.76,18.24,-269.04
4258.1454,273.707,-195.871,967.948,-1496.25,-5118.75,1050.0,-94.24,22.8,-261.44
4258.1954,293.471,-202.215,969.351,-1662.5,-5460.0,866.25,-106.4,24.32,-256.88
4258.2454,282.247,-197.762,971.364,-1575.0,-4270.0,201.25,-91.2,12.16,-259.92
4258.2954,278.343,-202.032,965.996,-1723.75,-5206.25,-122.5,-80.56,25.84,-261.44
4258.3454,295.606,-195.566,969.29,-761.25,-4322.5,175.0,-98.8,7.6,-247.76
4258.3954,278.465,-189.893,967.46,-1443.75,-4602.5,-35.0,-82.08,15.2,-261.44
4258.4454,284.138,-194.895,971.486,-2450.0,-5477.5,883.75,-92.72,18.24,-255.36
4258.4954,280.844,-202.825,970.693,-1531.25,-4261.25,1636.25,-83.6,30.4,-267.52
4258.5454,276.696,-202.581,967.643,-1207.5,-5355.0,1312.5,-80.56,9.12,-266.0
4258.5954,295.789,-193.675,964.227,-2108.75,-5241.25,280.0,-82.08,18.24,-259.92
4258.6454,285.358,-206.79,963.861,-2135.0,-5250.0,262.5,-98.8,4.56,-267.52
4258.6954,298.961,-213.805,967.948,-280.0,-4628.75,201.25,-92.72,3.04,-266.0
4258.7454,279.197,-182.146,969.168,-1496.25,-3246.25,218.75,-89.68,13.68,-269.04
4258.7954,281.149,-199.226,970.937,-2345.0,-5678.75,1032.5,-94.24,13.68,-272.08
4258.8454,293.41,-204.716,967.033,-1785.0,-4760.0,1435.0,-89.68,19.76,-261.44
4258.8954,277.489,-195.017,967.582,-1137.5,-4523.75,971.25,-95.76,22.8,-241.68
4258.9454,289.506,-202.581,968.863,-1916.25,-4716.25,691.25,-83.6,13.68,-269.04
4258.9954,285.358,-196.603,972.34,-1461.25,-3613.75,-201.25,-76.0,13.68,-266.0
4259.0454,281.82,-202.154,965.203,-743.75,-5180.0,78.75,-85.12,13.68,-262.96
4259.0954,295.057,-194.102,967.46,-455.0,-4112.5,-105.0,-77.52,28.88,-266.0
4259.1454,275.354,-188.673,970.876,-1732.5,-3167.5,87.5,-79.04,9.12,-252.32
4259.1954,277.855,-195.261,969.351,-2196.25,-4830.0,1067.5,-94.24,16.72,-261.44
4259.2454,283.772,-200.446,972.218,-1531.25,-3683.75,1855.0,-72.96,13.68,-264.48
4259.2954,275.293,-200.568,968.985,-1242.5,-4663.75,1312.5,-97.28,30.4,-276.64
4259.3454,282.491,-197.335,971.791,-1715.0,-4646.25,420.0,-92.72,9.12,-256.88
4259.3954,278.709,-200.385,969.9,-2362.5,-4270.0,350.0,-98.8,19.76,-273.6
4259.4454,288.469,-211.182,971.913,402.5,-4497.5,385.0,-91.2,13.68,-269.04
4259.4954,277.794,-178.913,973.743,-805.0,-3377.5,-113.75,-89.68,9.12,-262.96
4259.5454,268.949,-200.446,974.17,-2791.25,-5608.75,665.0,-92.72,22.8,-266.0
4259.5954,287.066,-205.631,968.07,-1890.0,-5390.0,1828.75,-83.6,19.76,-255.36
4259.6454,274.744,-199.348,969.412,-1137.5,-4313.75,1093.75,-79.04,19.76,-252.32
4259.6954,287.676,-206.363,969.778,-1898.75,-5188.75,420.0,-98.8,7.6,-262.96
4259.7454,288.591,-198.86,969.412,-1303.75,-3902.5,-253.75,-100.32,15.2,-247.76
4259.7954,275.72,-201.361,967.277,-1627.5,-5337.5,-175.0,-82.08,36.48,-252.32
4259.8454,288.652,-198.433,968.07,-866.25,-5048.75,647.5,-91.2,13.68,-270.56
4259.8955,278.709,-191.052,970.693,-1618.75,-3727.5,778.75,-91.2,19.76,-266.0
4259.9454,276.635,-196.847,969.29,-2345.0,-4768.75,1303.75,-79.04,16.72,-264.48
4259.9954,281.637,-202.276,970.327,-1968.75,-4366.25,1522.5,-85.12,16.72,-261.44
4260.0454,272.792,-200.507,971.486,-1531.25,-4646.25,1330.0,-88.16,16.72,-264.48
4260.0954,276.391,-200.141,971.974,-1216.25,-5250.0,822.5,-79.04,9.12,-261.44
4260.1454,282.003,-199.104,969.412,-2388.75,-4961.25,498.75,-100.32,22.8,-266.0
4260.1954,284.626,-207.827,968.07,-1242.5,-5162.5,673.75,-83.6,25.84,-264.48
4260.2454,288.835,-200.934,969.717,332.5,-3543.75,-621.25,-89.68,18.24,-262.96
4260.2954,263.276,-188.49,972.462,-2668.75,-4182.5,271.25,-82.08,36.48,-266.0
4260.3454,278.526,-203.74,968.924,-2196.25,-6133.75,1653.75,-80.56,15.2,-259.92
4260.3954,286.09,-209.108,970.693,-1041.25,-4296.25,1820.0,-88.16,19.76,-264.48
4260.4454,271.389,-196.176,970.876,-2187.5,-5993.75,507.5,-80.56,16.72,-262.96
4260.4954,293.776,-209.108,969.473,-1478.75,-5048.75,-315.0,-80.56,16.72,-258.4
4260.5454,275.354,-196.908,969.961,-1645.0,-4987.5,-61.25,-91.2,19.76,-269.04
4260.5954,284.504,-203.679,968.436,-1058.75,-5013.75,-52.5,-72.96,18.24,-266.0
4260.6454,277.123,-194.102,971.486,-962.5,-4515.0,-87.5,-92.72,15.2,-256.88
4260.6954,275.537,-195.2,972.035,-1942.5,-5836.25,-385.0,-79.04,10.64,-250.8
4260.7454,278.526,-199.104,972.706,-2126.25,-5565.0,35.0,-89.68,12.16,-270.56
4260.7954,276.269,-195.627,971.608,-2240.0,-6133.75,761.25,-92.72,10.64,-262.96
4260.8454,289.018,-207.217,967.033,-1513.75,-5880.0,516.25,-83.6,21.28,-250.8
4260.8954,282.003,-199.653,968.131,-1557.5,-5442.5,-122.5,-85.12,13.68,-269.04
4260.9454,286.151,-208.437,965.081,-1968.75,-5941.25,-665.0,-80.56,24.32,-259.92
4260.9954,302.072,-205.814,966.789,350.0,-5267.5,-1881.25,-82.08,24.32,-258.4
4261.0454,287.615,-181.78,964.41,-1207.5,-3465.0,-1435.0,-95.76,15.2,-264.48
