TimeStamp,ax,ay,az,gx,gy,gz,mx,my,mz
1917.9324,832.955,-158.112,599.935,-1382.5,-4585.0,700.0,-156.56,-270.56,-258.4
1917.9824,827.587,-155.245,596.031,-1662.5,-4768.75,787.5,-155.04,-259.92,-264.48
1918.0324,830.637,-161.04,597.434,-1417.5,-5075.0,218.75,-152.0,-266.0,-275.12
1918.0824,835.639,-156.587,603.473,-1662.5,-4663.75,551.25,-148.96,-255.36,-261.44
1918.1324,832.955,-158.356,601.582,-1627.5,-4366.25,332.5,-152.0,-238.64,-275.12
1918.1824,833.992,-158.783,600.85,-1828.75,-4602.5,813.75,-142.88,-258.4,-267.52
1918.2324,832.833,-160.43,601.887,-1400.0,-4803.75,437.5,-153.52,-266.0,-272.08
1918.2824,831.125,-157.38,599.142,-1382.5,-4698.75,393.75,-155.04,-272.08,-279.68
1918.3324,832.65,-158.6,598.044,-1513.75,-4523.75,402.5,-158.08,-261.44,-258.4
1918.3824,831.796,-158.539,600.057,-1417.5,-4751.25,612.5,-147.44,-243.2,-275.12
1918.4324,834.48,-160.186,600.423,-1391.25,-4838.75,656.25,-148.96,-250.8,-270.56
1918.4824,834.48,-158.234,598.959,-1540.0,-4707.5,621.25,-141.36,-264.48,-282.72
1918.5324,834.053,-158.661,602.314,-1662.5,-4663.75,490.0,-147.44,-259.92,-279.68
1918.5824,832.711,-157.197,600.423,-1592.5,-4471.25,560.0,-150.48,-255.36,-267.52
1918.6324,832.04,-159.088,602.314,-1531.25,-4795.0,630.0,-164.16,-241.68,-270.56
1918.6824,833.016,-159.393,600.179,-1513.75,-4777.5,542.5,-147.44,-249.28,-270.56
1918.7324,833.87,-156.709,599.996,-1443.75,-4812.5,385.0,-135.28,-249.28,-276.64
1918.7824,832.406,-156.77,599.142,-1470.0,-4891.25,560.0,-139.84,-253.84,-282.72
1918.8324,833.199,-159.21,600.545,-1540.0,-4742.5,761.25,-142.88,-252.32,-262.96
1918.8824,834.968,-159.21,600.24,-1373.75,-4602.5,787.5,-152.0,-266.0,-272.08
1918.9324,832.223,-159.454,601.155,-1557.5,-4698.75,428.75,-144.4,-252.32,-273.6
1918.9824,834.663,-158.295,602.68,-1566.25,-4453.75,341.25,-141.36,-255.36,-261.44
1919.0324,832.955,-158.539,599.874,-1618.75,-4655.0,358.75,-148.96,-252.32,-256.88
1919.0824,831.369,-157.624,601.216,-1470.0,-4515.0,612.5,-161.12,-267.52,-276.64
1919.1324,833.199,-160.613,600.301,-1470.0,-4698.75,735.0,-148.96,-266.0,-269.04
1919.1824,832.528,-160.552,599.325,-1426.25,-5197.5,358.75,-145.92,-264.48,-269.04
1919.2324,833.26,-156.709,598.959,-1750.0,-4532.5,525.0,-159.6,-256.88,-273.6
1919.2824,835.578,-158.112,600.667,-1408.75,-4663.75,306.25,-138.32,-266.0,-269.04
1919.3324,835.578,-159.027,601.826,-1566.25,-4803.75,831.25,-158.08,-255.36,-253.84
1919.3824,832.101,-157.99,601.155,-1505.0,-4786.25,691.25,-159.6,-266.0,-258.4
1919.4324,833.931,-157.319,598.715,-1575.0,-4418.75,376.25,-135.28,-256.88,-279.68
1919.4824,833.199,-159.332,601.765,-1365.0,-4576.25,297.5,-156.56,-256.88,-266.0
1919.5324,836.127,-161.101,600.118,-1750.0,-4637.5,560.0,-142.88,-264.48,-262.96
1919.5824,834.175,-161.223,601.155,-1312.5,-4803.75,647.5,-141.36,-249.28,-269.04
1919.6324,832.955,-153.903,599.996,-1723.75,-4830.0,673.75,-148.96,-261.44,-258.4
1919.6824,835.456,-160.308,602.558,-1461.25,-4637.5,420.0,-156.56,-261.44,-267.52
1919.7325,833.138,-159.881,601.46,-1592.5,-4707.5,533.75,-159.6,-275.12,-279.68
1919.7824,832.162,-161.711,600.179,-1435.0,-4795.0,402.5,-152.0,-261.44,-269.04
1919.8324,833.748,-155.916,601.704,-1566.25,-4795.0,665.0,-139.84,-261.44,-270.56
1919.8824,834.236,-161.65,600.667,-1522.5,-4926.25,577.5,-147.44,-269.04,-267.52
1919.9324,833.016,-158.295,601.643,-1548.75,-4716.25,350.0,-150.48,-275.12,-276.64
1919.9824,834.358,-159.515,602.192,-1548.75,-4672.5,577.5,-153.52,-250.8,-270.56
1920.0324,833.504,-159.82,599.325,-1636.25,-4742.5,717.5,-147.44,-258.4,-276.64
1920.0824,833.138,-160.186,597.068,-1540.0,-4908.75,586.25,-133.76,-267.52,-261.44
1920.1324,832.65,-158.478,600.179,-1575.0,-4795.0,446.25,-148.96,-246.24,-281.2
1920.1824,832.528,-160.735,600.667,-1531.25,-4733.75,420.0,-150.48,-266.0,-253.84
1920.2324,831.796,-158.539,600.423,-1566.25,-4672.5,726.25,-150.48,-259.92,-273.6
1920.2824,833.565,-159.637,601.826,-1417.5,-4891.25,770.0,-144.4,-259.92,-259.92
1920.3324,833.199,-157.929,602.802,-1478.75,-4637.5,708.75,-138.32,-253.84,-264.48
1920.3824,835.944,-158.295,602.985,-1522.5,-4821.25,516.25,-153.52,-262.96,-262.96
1920.4324,833.26,-158.051,600.667,-1575.0,-4541.25,341.25,-158.08,-249.28,-258.4
1920.4824,832.101,-157.502,601.46,-1505.0,-4646.25,708.75,-148.96,-252.32,-270.56
1920.5324,834.541,-159.027,603.656,-1566.25,-4917.5,901.25,-155.04,-255.36,-266.0
1920.5824,833.26,-159.576,599.996,-1365.0,-4961.25,673.75,-150.48,-252.32,-278.16
1920.6324,832.65,-160.491,600.972,-1452.5,-4891.25,262.5,-161.12,-247.76,-282.72
1920.6824,833.199,-157.746,602.131,-1680.0,-4611.25,551.25,-153.52,-252.32,-269.04
1920.7324,833.809,-159.942,601.338,-1487.5,-4742.5,796.25,-159.6,-262.96,-258.4
1920.7824,833.016,-157.502,601.765,-1522.5,-4847.5,822.5,-153.52,-253.84,-270.56
1920.8324,836.371,-156.587,600.423,-1470.0,-4821.25,682.5,-158.08,-255.36,-267.52
1920.8824,834.236,-159.454,600.85,-1557.5,-4550.0,498.75,-155.04,-258.4,-261.44
1920.9324,825.025,-162.443,599.081,-2231.25,-4217.5,612.5,-133.76,-262.96,-270.56
1920.9826,832.528,-160.186,606.218,-323.75,-5993.75,262.5,-139.84,-269.04,-261.44
1921.0324,832.772,-158.417,600.362,-796.25,-5775.0,481.25,-162.64,-244.72,-270.56
1921.0824,832.406,-159.881,598.349,-2091.25,-4095.0,708.75,-159.6,-262.96,-261.44
1921.1324,830.271,-157.502,601.643,-1732.5,-4646.25,498.75,-148.96,-252.32,-273.6
1921.1824,836.615,-161.345,599.264,-1443.75,-4935.0,586.25,-126.16,-247.76,-264.48
1921.2324,832.589,-156.77,602.436,-1645.0,-4322.5,787.5,-132.24,-264.48,-266.0
1921.2824,837.835,-155.977,602.558,-1986.25,-4453.75,796.25,-158.08,-264.48,-276.64
1921.3324,833.565,-158.539,603.229,-1295.0,-4856.25,341.25,-155.04,-273.6,-273.6
1921.3824,833.199,-156.953,599.874,-1461.25,-4987.5,542.5,-152.0,-246.24,-269.04
1921.4324,835.578,-161.04,600.972,-1435.0,-4760.0,647.5,-145.92,-255.36,-262.96
1921.4824,830.942,-153.049,602.863,-1540.0,-5040.0,840.0,-136.8,-247.76,-273.6
1921.5324,833.687,-161.162,600.179,-1723.75,-4900.0,717.5,-147.44,-262.96,-259.92
1921.5824,835.151,-158.417,599.569,-1452.5,-4707.5,192.5,-159.6,-262.96,-273.6
1921.6324,833.992,-156.465,602.497,-1697.5,-4331.25,586.25,-159.6,-267.52,-267.52
1921.6824,832.345,-161.589,602.924,-1391.25,-4961.25,700.0,-150.48,-267.52,-275.12
1921.7324,833.26,-159.149,598.41,-1653.75,-4978.75,892.5,-139.84,-252.32,-262.96
1921.7824,835.151,-160.43,599.203,-1557.5,-4313.75,402.5,-144.4,-264.48,-272.08
1921.8324,833.565,-156.587,600.667,-1680.0,-4987.5,586.25,-139.84,-261.44,-264.48
1921.8824,834.419,-160.674,600.972,-1592.5,-4681.25,350.0,-147.44,-273.6,-267.52
1921.9324,832.955,-158.783,600.484,-1426.25,-4786.25,577.5,-161.12,-269.04,-275.12
1921.9824,835.09,-159.454,600.179,-1540.0,-4943.75,770.0,-150.48,-258.4,-261.44
1922.0324,835.944,-157.014,599.691,-1478.75,-4593.75,350.0,-152.0,-259.92,-269.04
1922.0824,832.162,-159.21,596.885,-1592.5,-4751.25,516.25,-136.8,-261.44,-256.88
1922.1324,831.003,-157.075,603.534,-1505.0,-4795.0,428.75,-144.4,-264.48,-261.44
1922.1824,831.308,-157.685,598.166,-1601.25,-5188.75,822.5,-164.16,-269.04,-267.52
1922.2324,835.273,-159.149,602.192,-1417.5,-4795.0,612.5,-153.52,-250.8,-273.6
1922.2824,833.504,-159.454,599.203,-1618.75,-4655.0,507.5,-152.0,-249.28,-270.56
1922.3325,832.894,-157.685,598.532,-1548.75,-4742.5,411.25,-139.84,-252.32,-270.56
1922.3824,833.687,-160.186,600.789,-1706.25,-4628.75,560.0,-144.4,-252.32,-272.08
1922.4324,832.833,-159.454,599.569,-1522.5,-4795.0,647.5,-147.44,-240.16,-275.12
1922.4824,833.87,-159.759,602.375,-1662.5,-4873.75,595.0,-159.6,-261.44,-270.56
1922.5324,836.981,-158.661,601.033,-1601.25,-4690.0,446.25,-164.16,-259.92,-262.96
1922.5824,834.419,-158.051,600.728,-1583.75,-4593.75,507.5,-130.72,-269.04,-279.68
1922.6324,834.358,-155.855,600.789,-1540.0,-4655.0,647.5,-152.0,-258.4,-261.44
1922.6824,834.175,-158.966,600.667,-1618.75,-4655.0,656.25,-150.48,-244.72,-272.08
1922.7324,835.456,-158.539,599.935,-1400.0,-4786.25,376.25,-147.44,-253.84,-273.6
1922.7824,833.077,-157.99,601.46,-1671.25,-4462.5,411.25,-139.84,-256.88,-262.96
1922.8324,831.918,-159.698,599.996,-1540.0,-4917.5,656.25,-153.52,-258.4,-273.6
1922.8824,833.87,-159.271,595.726,-1662.5,-4672.5,761.25,-145.92,-261.44,-258.4
1922.9324,833.748,-158.661,601.765,-1496.25,-4646.25,481.25,-155.04,-269.04,-269.04
1922.9824,834.297,-158.6,600.423,-1785.0,-4672.5,498.75,-142.88,-266.0,-267.52
1923.0324,833.321,-159.698,602.192,-1478.75,-4690.0,245.0,-152.0,-264.48,-270.56
1923.0824,833.077,-157.746,601.155,-1496.25,-4777.5,770.0,-138.32,-249.28,-269.04
1923.1324,832.528,-157.807,599.264,-1435.0,-4663.75,735.0,-142.88,-243.2,-261.44
1923.1824,833.687,-157.99,600.972,-1575.0,-4873.75,770.0,-141.36,-261.44,-269.04
1923.2324,834.114,-159.515,599.264,-1601.25,-4558.75,236.25,-145.92,-272.08,-255.36
1923.2824,834.541,-158.6,598.288,-1557.5,-4497.5,350.0,-147.44,-253.84,-266.0
1923.3324,833.382,-157.136,602.192,-1417.5,-4646.25,796.25,-147.44,-262.96,-267.52
1923.3824,834.114,-160.064,600.85,-1435.0,-4655.0,752.5,-144.4,-247.76,-273.6
1923.4324,833.321,-155.001,601.765,-1435.0,-4830.0,656.25,-142.88,-267.52,-273.6
1923.4824,833.565,-160.308,601.338,-1557.5,-4926.25,472.5,-142.88,-259.92,-269.04
1923.5324,834.419,-157.624,600.057,-1592.5,-4786.25,490.0,-167.2,-252.32,-272.08
1923.5825,833.321,-160.186,599.325,-1566.25,-4768.75,761.25,-164.16,-262.96,-247.76
1923.6324,832.833,-158.661,603.107,-1531.25,-4803.75,813.75,-158.08,-250.8,-276.64
1923.6824,833.87,-157.929,601.948,-1531.25,-4716.25,525.0,-148.96,-250.8,-267.52
1923.7324,831.186,-160.674,600.057,-1566.25,-4523.75,367.5,-150.48,-255.36,-269.04
1923.7824,833.626,-158.905,600.606,-1531.25,-4742.5,630.0,-156.56,-258.4,-273.6
1923.8324,835.822,-159.149,602.924,-1531.25,-4655.0,612.5,-141.36,-246.24,-250.8
1923.8824,833.748,-158.844,601.216,-1461.25,-4891.25,463.75,-150.48,-259.92,-276.64
1923.9324,831.735,-158.722,600.728,-1601.25,-4558.75,437.5,-147.44,-252.32,-272.08
1923.9824,835.151,-158.722,599.264,-1601.25,-4576.25,568.75,-139.84,-255.36,-270.56
1924.0324,832.833,-161.101,601.277,-1540.0,-4821.25,647.5,-148.96,-249.28,-266.0
1924.0824,836.005,-157.868,602.375,-1505.0,-4585.0,822.5,-159.6,-261.44,-279.68
1924.1324,833.077,-157.929,600.301,-1601.25,-4672.5,525.0,-152.0,-252.32,-270.56
1924.1824,834.297,-159.881,601.765,-1566.25,-4725.0,280.0,-132.24,-255.36,-275.12
1924.2324,831.552,-159.515,603.29,-1513.75,-4777.5,621.25,-138.32,-247.76,-267.52
1924.2824,833.26,-159.82,600.667,-1618.75,-4847.5,787.5,-148.96,-250.8,-259.92
1924.3324,836.005,-159.515,600.85,-1478.75,-4751.25,848.75,-148.96,-258.4,-266.0
1924.3824,833.748,-156.831,601.033,-1522.5,-4672.5,393.75,-158.08,-262.96,-272.08
1924.4324,833.809,-158.783,601.887,-1566.25,-4742.5,385.0,-148.96,-249.28,-278.16
1924.4824,835.029,-158.234,597.556,-1496.25,-4576.25,393.75,-152.0,-243.2,-261.44
1924.5324,834.724,-160.613,600.118,-1601.25,-4646.25,857.5,-139.84,-259.92,-279.68
1924.5824,832.528,-159.759,601.826,-1382.5,-4900.0,682.5,-156.56,-261.44,-267.52
1924.6324,835.822,-158.905,600.362,-1662.5,-4768.75,385.0,-147.44,-262.96,-264.48
1924.6824,835.395,-159.332,601.033,-1505.0,-4567.5,306.25,-148.96,-250.8,-267.52
1924.7324,833.504,-158.112,601.643,-1697.5,-4620.0,481.25,-142.88,-243.2,-275.12
1924.7824,832.589,-157.197,601.46,-1522.5,-4707.5,708.75,-142.88,-258.4,-267.52
1924.8324,834.541,-161.223,598.41,-1487.5,-4830.0,700.0,-144.4,-255.36,-264.48
1924.8824,836.798,-159.576,602.619,-1583.75,-4646.25,280.0,-164.16,-246.24,-278.16
1924.9325,831.491,-160.125,600.545,-1653.75,-4655.0,437.5,-142.88,-258.4,-272.08
1924.9824,833.504,-160.125,600.911,-1461.25,-4672.5,533.75,-139.84,-256.88,-282.72
1925.0324,831.43,-159.515,601.643,-1470.0,-4541.25,752.5,-138.32,-256.88,-253.84
1925.0824,833.565,-157.807,599.508,-1557.5,-4768.75,717.5,-161.12,-262.96,-262.96
1925.1324,832.955,-160.308,599.569,-1627.5,-4602.5,481.25,-171.76,-258.4,-270.56
1925.1824,831.857,-158.844,601.155,-1557.5,-4698.75,507.5,-150.48,-258.4,-270.56
1925.2324,833.382,-159.637,601.338,-1575.0,-4611.25,560.0,-144.4,-246.24,-276.64
1925.2824,833.87,-158.051,603.961,-1540.0,-4830.0,612.5,-156.56,-256.88,-276.64
1925.3324,833.199,-160.125,599.203,-1583.75,-4795.0,621.25,-145.92,-252.32,-262.96
1925.3824,833.138,-159.759,600.728,-1540.0,-4786.25,428.75,-144.4,-264.48,-276.64
1925.4324,830.637,-160.796,599.569,-1452.5,-4803.75,647.5,-164.16,-261.44,-276.64
1925.4824,832.65,-159.271,600.362,-1426.25,-4733.75,735.0,-167.2,-255.36,-266.0
1925.5324,835.395,-158.783,598.105,-1400.0,-4777.5,551.25,-141.36,-259.92,-278.16
1925.5824,834.053,-159.637,602.985,-1540.0,-4943.75,542.5,-155.04,-247.76,-264.48
1925.6324,835.517,-159.332,602.436,-1662.5,-4558.75,472.5,-155.04,-255.36,-279.68
1925.6824,833.931,-159.82,601.826,-1461.25,-4602.5,726.25,-152.0,-262.96,-269.04
1925.7324,833.931,-162.077,601.704,-1548.75,-4856.25,805.0,-147.44,-255.36,-275.12
1925.7824,832.223,-158.051,600.789,-1636.25,-4760.0,446.25,-138.32,-246.24,-275.12
1925.8324,833.443,-158.234,602.009,-1706.25,-4637.5,551.25,-144.4,-246.24,-270.56
1925.8824,835.456,-159.088,602.802,-1417.5,-4856.25,306.25,-142.88,-258.4,-267.52
1925.9324,832.345,-160.552,598.044,-1443.75,-5005.0,700.0,-153.52,-255.36,-267.52
1925.9824,833.809,-157.868,603.839,-1443.75,-4760.0,743.75,-148.96,-261.44,-278.16
1926.0324,832.223,-161.528,598.776,-1636.25,-4585.0,673.75,-147.44,-247.76,-264.48
1926.0824,833.016,-159.332,599.691,-1618.75,-4663.75,455.0,-144.4,-250.8,-264.48
1926.1324,831.491,-160.552,600.057,-1443.75,-4830.0,446.25,-148.96,-269.04,-269.04
1926.1826,833.016,-158.722,601.216,-1496.25,-5127.5,866.25,-135.28,-249.28,-256.88
1926.2324,830.881,-159.088,599.935,-1522.5,-4742.5,831.25,-162.64,-258.4,-276.64
1926.2824,834.175,-159.393,599.447,-1470.0,-4663.75,542.5,-148.96,-256.88,-285.76
1926.3324,832.833,-159.149,601.704,-1548.75,-4760.0,490.0,-142.88,-249.28,-285.76
1926.3824,833.687,-159.881,601.582,-1618.75,-4471.25,455.0,-145.92,-264.48,-269.04
1926.4324,832.528,-160.125,602.497,-1566.25,-4725.0,813.75,-145.92,-256.88,-281.2
1926.4824,832.955,-158.783,600.301,-1513.75,-4628.75,577.5,-162.64,-249.28,-272.08
1926.5324,829.722,-157.38,602.375,-1566.25,-4681.25,603.75,-145.92,-253.84,-282.72
1926.5824,834.358,-161.894,602.192,-1391.25,-4453.75,498.75,-142.88,-269.04,-270.56
1926.6324,836.737,-159.942,602.924,-1400.0,-4760.0,560.0,-147.44,-255.36,-252.32
1926.6824,833.26,-159.637,599.02,-1583.75,-4445.0,805.0,-150.48,-255.36,-275.12
1926.7324,835.578,-159.698,603.168,-1741.25,-4681.25,586.25,-158.08,-267.52,-272.08
1926.7824,833.809,-158.417,598.837,-1487.5,-4917.5,472.5,-145.92,-267.52,-264.48
1926.8324,836.188,-158.173,604.083,-1592.5,-4515.0,673.75,-141.36,-247.76,-279.68
1926.8824,830.881,-159.942,601.094,-1487.5,-5101.25,787.5,-150.48,-246.24,-278.16
1926.9324,835.456,-160.186,596.275,-1400.0,-4978.75,551.25,-155.04,-258.4,-288.8
1926.9824,833.565,-156.282,603.046,-1636.25,-4541.25,472.5,-145.92,-246.24,-278.16
1927.0324,835.09,-159.698,602.131,-1662.5,-4576.25,577.5,-145.92,-250.8,-273.6
1927.0824,833.321,-158.783,604.205,-1461.25,-4777.5,647.5,-155.04,-258.4,-255.36
1927.1324,828.868,-157.746,602.009,-1610.0,-5040.0,752.5,-148.96,-253.84,-267.52
1927.1824,834.724,-157.99,600.118,-1268.75,-4768.75,726.25,-138.32,-262.96,-266.0
1927.2324,832.04,-157.014,601.887,-1671.25,-4567.5,402.5,-147.44,-269.04,-275.12
1927.2824,834.846,-160.613,599.813,-1461.25,-4856.25,332.5,-145.92,-252.32,-267.52
1927.3324,828.563,-157.624,600.789,-1487.5,-4602.5,402.5,-145.92,-264.48,-275.12
1927.3824,834.236,-159.759,598.776,-1268.75,-5048.75,673.75,-144.4,-252.32,-267.52
1927.4324,833.26,-157.258,601.521,-1732.5,-4576.25,787.5,-136.8,-250.8,-284.24
1927.4824,830.271,-160.003,601.033,-1662.5,-4655.0,463.75,-141.36,-258.4,-258.4
1927.5325,833.565,-158.783,599.996,-1408.75,-4891.25,323.75,-148.96,-264.48,-267.52
1927.5824,833.931,-159.759,601.765,-1461.25,-4637.5,472.5,-155.04,-258.4,-272.08
1927.6324,832.833,-159.21,599.264,-1426.25,-4646.25,796.25,-136.8,-238.64,-279.68
1927.6824,833.077,-159.637,601.643,-1400.0,-4935.0,586.25,-148.96,-262.96,-267.52
1927.7324,835.151,-156.343,598.593,-1496.25,-4803.75,280.0,-155.04,-258.4,-256.88
1927.7824,832.345,-159.637,601.216,-1820.0,-4576.25,647.5,-156.56,-258.4,-266.0
1927.8324,834.785,-159.698,600.24,-1452.5,-4891.25,533.75,-158.08,-253.84,-279.68
1927.8824,832.04,-156.648,598.837,-1548.75,-4795.0,717.5,-150.48,-264.48,-278.16
1927.9324,834.175,-159.393,601.277,-1723.75,-4838.75,621.25,-162.64,-249.28,-262.96
1927.9824,833.931,-158.295,601.826,-1496.25,-4628.75,472.5,-155.04,-261.44,-256.88
1928.0324,833.748,-158.295,601.216,-1417.5,-4576.25,420.0,-158.08,-266.0,-264.48
1928.0824,832.284,-159.027,600.728,-1662.5,-4733.75,708.75,-150.48,-261.44,-266.0
1928.1324,833.199,-160.125,601.155,-1601.25,-4725.0,595.0,-147.44,-252.32,-267.52
1928.1824,833.382,-159.332,599.203,-1583.75,-4558.75,586.25,-142.88,-262.96,-266.0
1928.2324,833.199,-156.953,602.802,-1461.25,-4856.25,367.5,-133.76,-250.8,-269.04
1928.2824,833.87,-159.21,599.569,-1645.0,-4620.0,621.25,-156.56,-249.28,-267.52
1928.3324,830.088,-162.565,601.948,-1478.75,-4628.75,901.25,-153.52,-262.96,-273.6
1928.3824,832.467,-158.417,601.277,-1452.5,-4690.0,332.5,-148.96,-266.0,-273.6
1928.4324,832.711,-160.857,599.569,-1662.5,-4777.5,358.75,-139.84,-252.32,-261.44
1928.4824,832.467,-159.332,599.63,-1540.0,-4620.0,332.5,-148.96,-269.04,-258.4
1928.5324,833.565,-158.905,601.643,-1592.5,-4777.5,743.75,-158.08,-240.16,-269.04
1928.5824,835.334,-156.526,602.985,-1566.25,-4663.75,743.75,-147.44,-258.4,-253.84
1928.6324,831.125,-161.589,601.094,-1828.75,-4628.75,533.75,-174.8,-238.64,-270.56
1928.6824,833.992,-158.6,601.033,-1452.5,-4900.0,297.5,-147.44,-250.8,-266.0
1928.7324,834.48,-159.576,600.484,-1531.25,-4751.25,393.75,-136.8,-264.48,-272.08
1928.7825,832.772,-158.295,598.471,-1583.75,-4672.5,805.0,-155.04,-259.92,-258.4
1928.8324,834.175,-159.454,600.789,-1435.0,-4733.75,717.5,-144.4,-261.44,-275.12
1928.8824,833.565,-159.576,602.68,-1636.25,-4663.75,665.0,-155.04,-247.76,-267.52
1928.9324,832.406,-160.247,601.338,-1548.75,-4821.25,420.0,-142.88,-267.52,-272.08
1928.9824,832.955,-157.868,600.606,-1513.75,-4768.75,402.5,-136.8,-264.48,-273.6
1929.0324,834.663,-157.624,602.253,-1496.25,-4760.0,831.25,-168.72,-264.48,-264.48
1929.0824,833.687,-157.99,602.985,-1487.5,-4611.25,665.0,-147.44,-246.24,-264.48
1929.1324,833.565,-161.284,601.277,-1583.75,-4550.0,542.5,-147.44,-267.52,-276.64
1929.1824,834.053,-159.82,601.155,-1470.0,-4733.75,463.75,-139.84,-262.96,-276.64
1929.2324,835.7,-159.088,598.471,-1470.0,-4585.0,472.5,-162.64,-247.76,-262.96
1929.2824,836.249,-158.112,601.277,-1540.0,-4856.25,656.25,-153.52,-250.8,-266.0
1929.3324,834.48,-160.674,599.203,-1662.5,-4655.0,743.75,-153.52,-252.32,-275.12
1929.3824,831.43,-157.868,601.399,-1478.75,-4698.75,332.5,-150.48,-258.4,-272.08
1929.4324,833.809,-160.43,599.264,-1618.75,-4646.25,595.0,-145.92,-243.2,-264.48
1929.4824,836.432,-158.844,600.24,-1452.5,-4698.75,568.75,-155.04,-241.68,-269.04
1929.5324,833.138,-157.319,602.863,-1548.75,-4620.0,752.5,-155.04,-250.8,-256.88
1929.5824,832.589,-160.735,600.301,-1601.25,-4602.5,385.0,-171.76,-262.96,-278.16
1929.6324,833.26,-160.552,601.582,-1601.25,-4655.0,341.25,-150.48,-246.24,-287.28
1929.6824,834.602,-159.82,599.447,-1601.25,-4436.25,691.25,-142.88,-244.72,-267.52
1929.7324,831.552,-158.539,599.508,-1382.5,-4803.75,787.5,-147.44,-247.76,-270.56
1929.7824,833.992,-161.528,598.715,-1426.25,-4900.0,813.75,-159.6,-250.8,-259.92
1929.8324,830.027,-158.661,599.935,-1531.25,-4733.75,350.0,-164.16,-259.92,-258.4
1929.8824,832.955,-159.21,603.473,-1548.75,-4663.75,350.0,-145.92,-252.32,-278.16
1929.9324,832.528,-156.221,601.46,-1513.75,-4725.0,752.5,-133.76,-256.88,-275.12
1929.9824,833.687,-160.186,602.68,-1461.25,-5031.25,813.75,-148.96,-250.8,-259.92
1930.0324,832.284,-158.844,601.033,-1487.5,-4908.75,866.25,-144.4,-259.92,-264.48
1930.0824,833.504,-159.088,602.68,-1645.0,-4655.0,297.5,-161.12,-258.4,-266.0
1930.1325,833.87,-159.576,601.521,-1601.25,-4585.0,385.0,-145.92,-256.88,-272.08
1930.1824,831.003,-159.942,602.436,-1671.25,-4900.0,358.75,-138.32,-253.84,-267.52
1930.2324,835.09,-158.844,599.203,-1373.75,-4882.5,708.75,-141.36,-269.04,-261.44
1930.2824,833.931,-157.807,599.63,-1478.75,-4760.0,630.0,-150.48,-264.48,-264.48
1930.3324,832.772,-158.905,599.142,-1487.5,-4725.0,323.75,-164.16,-262.96,-275.12
1930.3824,832.833,-159.332,602.192,-1540.0,-4523.75,350.0,-153.52,-256.88,-275.12
1930.4324,831.674,-159.82,599.02,-1583.75,-4821.25,490.0,-165.68,-249.28,-247.76
1930.4824,831.369,-156.892,602.436,-1531.25,-4760.0,743.75,-138.32,-259.92,-261.44
1930.5324,833.138,-160.369,597.556,-1496.25,-4733.75,595.0,-152.0,-255.36,-270.56
1930.5824,831.369,-160.064,601.338,-1540.0,-4707.5,385.0,-150.48,-267.52,-273.6
1930.6324,832.589,-159.759,601.582,-1408.75,-4830.0,525.0,-138.32,-250.8,-264.48
1930.6824,834.114,-158.722,600.301,-1540.0,-4760.0,726.25,-147.44,-252.32,-272.08
1930.7324,833.565,-158.478,598.776,-1618.75,-4698.75,516.25,-152.0,-258.4,-269.04
1930.7824,832.04,-158.966,598.898,-1513.75,-4900.0,446.25,-142.88,-266.0,-266.0
1930.8324,831.979,-158.234,601.704,-1522.5,-4655.0,516.25,-148.96,-258.4,-267.52
1930.8824,831.674,-159.088,599.752,-1478.75,-4891.25,630.0,-155.04,-262.96,-270.56
1930.9324,833.809,-160.003,602.802,-1408.75,-4760.0,726.25,-142.88,-255.36,-269.04
1930.9824,832.833,-158.844,603.595,-1461.25,-4847.5,472.5,-135.28,-253.84,-272.08
1931.0324,833.87,-160.247,602.314,-1575.0,-4707.5,446.25,-141.36,-267.52,-261.44
1931.0824,835.7,-157.075,599.63,-1627.5,-4550.0,350.0,-142.88,-235.6,-269.04
1931.1324,833.87,-159.21,599.569,-1583.75,-4952.5,761.25,-150.48,-253.84,-281.2
1931.1824,832.467,-160.003,600.911,-1548.75,-4646.25,726.25,-144.4,-256.88,-262.96
1931.2324,831.491,-157.624,599.996,-1592.5,-4532.5,288.75,-145.92,-255.36,-279.68
1931.2824,834.907,-159.515,600.118,-1522.5,-4646.25,341.25,-133.76,-253.84,-264.48
1931.3324,833.077,-156.526,601.643,-1557.5,-4585.0,385.0,-153.52,-264.48,-266.0
1931.3825,836.554,-160.735,601.155,-1566.25,-4777.5,708.75,-153.52,-255.36,-282.72
1931.4324,834.297,-160.43,601.338,-1470.0,-4786.25,673.75,-155.04,-264.48,-275.12
1931.4824,833.565,-158.722,601.094,-1540.0,-4707.5,332.5,-141.36,-256.88,-264.48
1931.5324,833.138,-158.295,602.741,-1636.25,-4541.25,463.75,-147.44,-253.84,-264.48
1931.5824,830.881,-160.43,600.667,-1601.25,-4453.75,481.25,-153.52,-249.28,-276.64
1931.6324,833.321,-160.247,602.802,-1557.5,-4742.5,822.5,-145.92,-259.92,-269.04
1931.6824,833.565,-160.491,603.168,-1566.25,-4917.5,761.25,-144.4,-253.84,-258.4
1931.7324,833.687,-156.953,599.386,-1540.0,-4698.75,472.5,-144.4,-267.52,-272.08
1931.7824,833.26,-158.234,600.484,-1583.75,-4655.0,341.25,-139.84,-261.44,-267.52
1931.8324,830.637,-157.807,599.508,-1417.5,-4637.5,472.5,-133.76,-261.44,-279.68
1931.8824,833.809,-160.369,600.972,-1496.25,-4821.25,735.0,-148.96,-269.04,-256.88
1931.9324,831.369,-160.003,602.436,-1575.0,-4795.0,560.0,-138.32,-266.0,-278.16
1931.9824,832.406,-159.21,603.168,-1452.5,-4847.5,323.75,-142.88,-262.96,-270.56
1932.0324,831.735,-157.258,600.789,-1653.75,-4541.25,455.0,-139.84,-270.56,-282.72
1932.0824,832.528,-160.125,599.63,-1557.5,-4803.75,691.25,-147.44,-261.44,-266.0
1932.1324,833.748,-159.332,598.776,-1548.75,-4768.75,595.0,-164.16,-258.4,-270.56
1932.1824,835.273,-158.905,600.179,-1417.5,-4830.0,393.75,-162.64,-255.36,-262.96
1932.2324,833.565,-160.491,601.521,-1443.75,-4847.5,446.25,-141.36,-264.48,-281.2
1932.2824,833.321,-158.661,599.874,-1513.75,-4777.5,621.25,-145.92,-247.76,-270.56
1932.3324,833.26,-159.271,602.68,-1408.75,-4786.25,700.0,-145.92,-261.44,-259.92
1932.3824,831.857,-158.844,601.643,-1435.0,-4681.25,778.75,-168.72,-266.0,-281.2
1932.4324,830.393,-157.441,601.704,-1697.5,-4480.0,533.75,-144.4,-267.52,-255.36
1932.4824,834.48,-161.528,603.839,-1417.5,-5250.0,341.25,-158.08,-259.92,-276.64
1932.5324,830.088,-159.82,599.508,-1216.25,-5311.25,595.0,-142.88,-246.24,-264.48
1932.5824,834.419,-159.759,602.253,-1601.25,-4348.75,787.5,-138.32,-272.08,-266.0
1932.6324,835.151,-160.857,601.399,-1592.5,-4882.5,770.0,-155.04,-264.48,-266.0
1932.6824,834.114,-159.881,601.033,-1513.75,-4733.75,358.75,-130.72,-261.44,-272.08
1932.7325,833.809,-158.112,603.595,-1575.0,-4690.0,306.25,-145.92,-255.36,-275.12
1932.7824,832.406,-156.526,601.216,-1548.75,-4523.75,822.5,-161.12,-269.04,-269.04
1932.8324,832.345,-158.173,600.362,-1295.0,-4751.25,656.25,-155.04,-255.36,-259.92
1932.8824,832.04,-159.759,602.192,-1601.25,-4637.5,638.75,-144.4,-243.2,-262.96
1932.9324,833.748,-160.735,600.423,-1566.25,-4760.0,428.75,-155.04,-243.2,-262.96
1932.9824,833.748,-159.271,601.155,-1610.0,-4646.25,455.0,-150.48,-256.88,-276.64
1933.0324,835.029,-158.234,602.253,-1496.25,-4602.5,630.0,-139.84,-267.52,-261.44
1933.0824,833.138,-160.613,600.728,-1575.0,-4725.0,743.75,-153.52,-259.92,-273.6
1933.1324,831.918,-158.295,599.996,-1478.75,-4681.25,603.75,-161.12,-258.4,-272.08
1933.1824,832.772,-157.807,602.985,-1618.75,-4585.0,367.5,-161.12,-267.52,-287.28
1933.2324,831.979,-157.929,602.009,-1531.25,-4541.25,411.25,-141.36,-261.44,-264.48
1933.2824,830.881,-158.478,601.094,-1513.75,-4663.75,560.0,-158.08,-259.92,-267.52
1933.3324,831.186,-161.467,598.776,-1496.25,-4742.5,630.0,-165.68,-259.92,-275.12
1933.3824,830.332,-159.149,602.741,-1487.5,-4532.5,603.75,-148.96,-247.76,-273.6
1933.4324,831.735,-157.258,600.667,-1478.75,-4707.5,420.0,-145.92,-243.2,-255.36
1933.4824,833.626,-159.881,597.495,-1408.75,-4725.0,595.0,-141.36,-256.88,-261.44
1933.5324,833.992,-159.698,601.948,-1461.25,-4698.75,638.75,-150.48,-241.68,-276.64
1933.5824,834.663,-158.417,600.606,-1426.25,-4611.25,595.0,-147.44,-262.96,-272.08
1933.6324,834.114,-157.563,597.861,-1548.75,-4830.0,463.75,-155.04,-238.64,-278.16
1933.6824,832.833,-159.027,598.898,-1505.0,-4453.75,577.5,-155.04,-240.16,-275.12
1933.7324,832.162,-158.844,602.375,-1575.0,-4611.25,805.0,-145.92,-247.76,-270.56
1933.7824,833.992,-158.356,599.874,-1443.75,-4733.75,673.75,-152.0,-255.36,-267.52
1933.8324,832.772,-157.99,604.449,-1636.25,-4550.0,428.75,-147.44,-246.24,-267.52
1933.8824,833.26,-160.247,600.728,-1426.25,-4760.0,393.75,-159.6,-261.44,-253.84
1933.9324,833.443,-158.966,600.789,-1618.75,-4593.75,315.0,-132.24,-250.8,-270.56
1933.9826,831.125,-158.478,602.253,-1636.25,-4882.5,971.25,-141.36,-252.32,-267.52
1934.0324,835.334,-160.674,600.301,-1540.0,-4830.0,787.5,-148.96,-270.56,-264.48
1934.0824,834.48,-159.82,599.63,-1540.0,-4821.25,393.75,-155.04,-252.32,-261.44
1934.1324,833.809,-160.064,600.057,-1601.25,-4620.0,306.25,-150.48,-258.4,-270.56
1934.1824,834.297,-158.539,601.033,-1627.5,-4830.0,568.75,-150.48,-256.88,-259.92
1934.2324,834.48,-159.027,600.545,-1216.25,-4882.5,656.25,-147.44,-258.4,-275.12
1934.2824,833.87,-156.831,602.619,-1706.25,-4803.75,717.5,-164.16,-276.64,-267.52
1934.3324,833.016,-161.528,599.996,-1470.0,-4777.5,437.5,-147.44,-264.48,-269.04
1934.3824,833.26,-156.404,601.826,-1575.0,-4751.25,437.5,-152.0,-256.88,-259.92
1934.4324,834.358,-160.369,597.434,-1540.0,-4445.0,446.25,-132.24,-244.72,-276.64
1934.4824,832.162,-156.526,601.46,-1522.5,-4375.0,805.0,-145.92,-255.36,-262.96
1934.5324,831.125,-160.369,600.362,-1513.75,-4970.0,735.0,-144.4,-270.56,-272.08
1934.5824,833.016,-156.526,603.046,-1443.75,-4943.75,507.5,-153.52,-246.24,-264.48
1934.6324,836.493,-158.539,599.813,-1470.0,-4821.25,455.0,-144.4,-247.76,-261.44
1934.6824,834.175,-160.369,604.876,-1732.5,-4716.25,647.5,-130.72,-259.92,-264.48
1934.7324,832.223,-159.088,601.216,-1478.75,-5013.75,717.5,-153.52,-256.88,-278.16
1934.7824,831.43,-158.966,603.9,-1548.75,-4663.75,437.5,-145.92,-252.32,-278.16
1934.8324,834.541,-156.709,600.728,-1592.5,-5180.0,428.75,-173.28,-241.68,-275.12
1934.8824,833.931,-159.21,601.948,-1688.75,-4453.75,630.0,-136.8,-238.64,-278.16
1934.9324,832.589,-158.051,603.29,-1443.75,-4690.0,708.75,-139.84,-262.96,-256.88
1934.9824,832.101,-159.332,600.362,-1496.25,-4961.25,533.75,-147.44,-255.36,-270.56
1935.0324,837.042,-157.563,602.314,-1496.25,-4760.0,516.25,-138.32,-267.52,-267.52
1935.0824,834.48,-158.905,598.837,-1557.5,-4751.25,411.25,-158.08,-259.92,-278.16
1935.1324,831.857,-158.356,600.667,-1478.75,-4742.5,717.5,-144.4,-255.36,-281.2
1935.1824,832.528,-159.576,598.288,-1601.25,-4585.0,735.0,-147.44,-253.84,-272.08
1935.2324,833.26,-160.125,600.728,-1452.5,-5040.0,743.75,-139.84,-262.96,-261.44
1935.2824,833.565,-159.698,599.691,-1470.0,-4838.75,481.25,-152.0,-276.64,-262.96
1935.3325,834.663,-158.844,601.216,-1653.75,-4611.25,350.0,-159.6,-247.76,-275.12
1935.3824,833.321,-161.04,600.667,-1732.5,-4646.25,822.5,-148.96,-259.92,-275.12
1935.4324,833.87,-157.746,600.423,-1365.0,-4663.75,700.0,-152.0,-253.84,-278.16
1935.4824,833.321,-160.064,603.595,-1583.75,-4786.25,796.25,-141.36,-262.96,-279.68
1935.5324,835.456,-158.112,600.118,-1435.0,-4663.75,288.75,-148.96,-259.92,-273.6
1935.5824,833.26,-160.186,600.057,-1610.0,-4873.75,586.25,-165.68,-264.48,-258.4
1935.6324,832.467,-161.772,599.447,-1382.5,-4935.0,551.25,-142.88,-259.92,-270.56
1935.6824,832.65,-159.759,603.717,-1627.5,-4952.5,892.5,-132.24,-238.64,-252.32
1935.7324,834.785,-160.735,602.009,-1312.5,-4830.0,560.0,-138.32,-266.0,-270.56
1935.7824,835.09,-157.441,601.155,-1601.25,-4742.5,402.5,-152.0,-264.48,-276.64
1935.8324,834.053,-158.6,602.68,-1636.25,-4506.25,472.5,-159.6,-273.6,-259.92
1935.8824,833.748,-158.783,603.351,-1627.5,-4725.0,577.5,-164.16,-243.2,-266.0
1935.9324,835.212,-161.711,599.996,-1566.25,-4725.0,647.5,-156.56,-244.72,-253.84
1935.9824,833.016,-157.197,603.107,-1461.25,-4716.25,490.0,-136.8,-255.36,-279.68
1936.0324,832.101,-161.589,599.996,-1557.5,-4690.0,542.5,-147.44,-253.84,-264.48
1936.0824,835.029,-157.868,601.033,-1575.0,-4462.5,516.25,-150.48,-264.48,-262.96
1936.1324,834.358,-158.417,601.277,-1548.75,-4830.0,682.5,-162.64,-252.32,-276.64
1936.1824,832.101,-157.929,602.314,-1557.5,-4760.0,612.5,-148.96,-247.76,-261.44
1936.2324,832.284,-160.186,601.277,-1732.5,-4550.0,568.75,-156.56,-261.44,-270.56
1936.2824,833.504,-158.234,601.704,-1443.75,-4803.75,516.25,-153.52,-250.8,-269.04
1936.3324,836.005,-157.624,599.63,-1478.75,-4663.75,700.0,-159.6,-269.04,-261.44
1936.3824,833.016,-159.332,599.02,-1330.0,-4777.5,673.75,-161.12,-262.96,-256.88
1936.4324,835.151,-160.735,602.68,-1601.25,-4795.0,560.0,-135.28,-252.32,-264.48
1936.4824,833.077,-158.234,601.704,-1575.0,-4865.0,358.75,-141.36,-256.88,-270.56
1936.5324,833.87,-159.515,602.558,-1435.0,-4786.25,507.5,-152.0,-259.92,-256.88
1936.5824,835.029,-158.539,601.826,-1601.25,-4646.25,822.5,-156.56,-281.2,-276.64
1936.6324,832.833,-158.051,600.545,-1496.25,-4856.25,656.25,-164.16,-247.76,-269.04
1936.6825,832.345,-160.369,600.24,-1610.0,-4768.75,428.75,-147.44,-262.96,-276.64
1936.7324,835.273,-156.526,599.752,-1452.5,-4707.5,253.75,-153.52,-269.04,-273.6
1936.7824,834.236,-159.759,600.606,-1496.25,-4830.0,385.0,-145.92,-261.44,-269.04
1936.8324,833.809,-159.027,599.264,-1478.75,-4812.5,770.0,-147.44,-273.6,-270.56
1936.8824,830.759,-157.99,599.569,-1618.75,-4637.5,875.0,-150.48,-256.88,-258.4
1936.9324,835.456,-160.369,602.07,-1706.25,-4620.0,411.25,-145.92,-255.36,-258.4
1936.9824,834.297,-157.99,598.41,-1557.5,-4532.5,437.5,-142.88,-253.84,-262.96
1937.0324,831.796,-158.783,598.532,-1610.0,-4803.75,411.25,-153.52,-259.92,-273.6
1937.0824,831.186,-160.125,599.203,-1575.0,-4943.75,752.5,-162.64,-270.56,-267.52
1937.1324,832.711,-159.698,602.558,-1531.25,-4830.0,708.75,-162.64,-270.56,-259.92
1937.1824,832.04,-158.722,603.229,-1505.0,-4681.25,271.25,-155.04,-259.92,-261.44
1937.2324,833.016,-157.929,599.386,-1540.0,-4795.0,490.0,-150.48,-247.76,-266.0
1937.2824,831.857,-159.454,601.643,-1566.25,-4655.0,542.5,-141.36,-256.88,-273.6
1937.3324,833.077,-158.844,598.776,-1505.0,-4970.0,700.0,-155.04,-270.56,-262.96
1937.3824,832.101,-158.905,600.484,-1496.25,-4593.75,542.5,-147.44,-264.48,-273.6
1937.4324,834.602,-157.807,604.815,-1435.0,-4821.25,385.0,-153.52,-256.88,-279.68
1937.4824,834.48,-159.881,599.996,-1426.25,-4952.5,420.0,-136.8,-246.24,-262.96
1937.5324,834.053,-160.491,600.362,-1618.75,-4663.75,700.0,-144.4,-261.44,-270.56
1937.5824,834.297,-158.051,601.46,-1426.25,-4891.25,735.0,-148.96,-266.0,-266.0
1937.6324,834.48,-158.661,603.046,-1496.25,-4830.0,516.25,-158.08,-269.04,-253.84
1937.6824,834.175,-157.807,599.752,-1592.5,-4663.75,385.0,-150.48,-259.92,-273.6
1937.7324,835.578,-157.502,601.582,-1636.25,-4585.0,673.75,-152.0,-255.36,-264.48
1937.7824,833.443,-159.027,602.253,-1417.5,-4847.5,717.5,-141.36,-246.24,-273.6
1937.8324,832.223,-158.112,599.02,-1583.75,-4716.25,612.5,-150.48,-264.48,-285.76
1937.8824,833.321,-158.234,600.057,-1592.5,-4865.0,385.0,-142.88,-258.4,-269.04
1937.9325,836.188,-158.295,600.423,-1566.25,-4602.5,350.0,-155.04,-250.8,-273.6
1937.9824,834.48,-159.271,602.314,-1487.5,-4917.5,638.75,-145.92,-244.72,-267.52
1938.0324,832.04,-161.101,600.911,-1653.75,-4550.0,770.0,-164.16,-247.76,-267.52
1938.0824,833.87,-159.637,603.351,-1505.0,-4786.25,708.75,-159.6,-269.04,-267.52
1938.1324,833.199,-159.149,599.569,-1645.0,-4681.25,306.25,-141.36,-259.92,-252.32
1938.1824,831.186,-158.234,598.837,-1575.0,-4768.75,385.0,-139.84,-261.44,-272.08
1938.2324,832.833,-158.478,600.911,-1505.0,-4812.5,761.25,-148.96,-252.32,-262.96
1938.2824,830.759,-161.223,603.046,-1461.25,-4611.25,743.75,-135.28,-256.88,-273.6
1938.3324,833.748,-158.051,599.874,-1540.0,-4847.5,708.75,-152.0,-255.36,-264.48
1938.3824,833.077,-159.454,602.802,-1723.75,-4707.5,507.5,-153.52,-249.28,-270.56
1938.4324,833.687,-157.136,600.484,-1662.5,-4830.0,446.25,-153.52,-258.4,-270.56
1938.4824,832.528,-159.149,597.922,-1531.25,-4821.25,761.25,-141.36,-243.2,-275.12
1938.5324,830.759,-158.295,597.556,-1522.5,-5048.75,787.5,-155.04,-253.84,-279.68
1938.5824,832.589,-158.783,597.739,-1496.25,-4908.75,586.25,-152.0,-259.92,-266.0
1938.6324,834.175,-159.027,599.447,-1618.75,-4523.75,498.75,-153.52,-269.04,-282.72
1938.6824,831.064,-158.722,600.911,-1461.25,-4725.0,542.5,-145.92,-256.88,-275.12
1938.7324,832.04,-158.844,598.227,-1496.25,-4838.75,603.75,-147.44,-262.96,-272.08
1938.7824,831.186,-159.393,601.704,-1391.25,-4830.0,560.0,-142.88,-262.96,-278.16
1938.8324,834.724,-160.369,601.826,-1592.5,-4987.5,568.75,-148.96,-264.48,-259.92
1938.8824,832.65,-160.613,598.532,-1566.25,-4777.5,481.25,-171.76,-261.44,-279.68
1938.9324,834.053,-159.454,600.484,-1566.25,-4707.5,638.75,-144.4,-250.8,-258.4
1938.9824,834.358,-160.735,601.033,-1400.0,-4908.75,656.25,-152.0,-252.32,-266.0
1939.0324,832.833,-156.587,599.325,-1522.5,-4865.0,525.0,-152.0,-253.84,-258.4
1939.0824,832.528,-159.515,601.582,-1557.5,-4628.75,481.25,-147.44,-267.52,-267.52
1939.1324,833.138,-158.234,603.107,-1513.75,-4646.25,577.5,-141.36,-253.84,-272.08
1939.1824,832.711,-160.735,601.887,-1601.25,-4856.25,726.25,-142.88,-252.32,-259.92
1939.2324,832.528,-159.698,600.484,-1505.0,-4943.75,726.25,-142.88,-264.48,-273.6
1939.2825,832.467,-160.003,598.776,-1583.75,-4882.5,472.5,-164.16,-259.92,-273.6
1939.3324,832.772,-159.21,601.399,-1688.75,-4602.5,253.75,-148.96,-249.28,-267.52
1939.3824,832.894,-159.698,599.386,-1583.75,-4663.75,638.75,-148.96,-259.92,-261.44
1939.4324,831.674,-161.223,601.704,-1435.0,-4917.5,647.5,-150.48,-256.88,-270.56
1939.4824,836.554,-158.234,598.837,-1443.75,-5031.25,770.0,-156.56,-262.96,-272.08
1939.5324,832.101,-160.369,600.057,-1531.25,-4786.25,393.75,-167.2,-261.44,-261.44
1939.5824,832.223,-160.308,602.192,-1636.25,-4803.75,350.0,-144.4,-255.36,-258.4
1939.6324,835.517,-157.99,600.179,-1496.25,-4611.25,437.5,-139.84,-258.4,-256.88
1939.6824,834.236,-160.857,598.41,-1391.25,-4821.25,813.75,-133.76,-255.36,-275.12
1939.7324,833.382,-161.528,601.887,-1505.0,-4856.25,752.5,-158.08,-252.32,-266.0
1939.7824,833.504,-158.783,600.057,-1627.5,-4716.25,402.5,-145.92,-256.88,-278.16
1939.8324,833.687,-156.77,600.789,-1548.75,-4558.75,376.25,-139.84,-253.84,-259.92
1939.8824,831.796,-159.393,603.778,-1487.5,-4655.0,516.25,-144.4,-253.84,-272.08
1939.9324,833.504,-161.589,600.301,-1566.25,-5013.75,831.25,-152.0,-262.96,-259.92
1939.9824,833.443,-157.99,601.643,-1566.25,-4786.25,691.25,-161.12,-259.92,-267.52
1940.0324,832.772,-158.356,596.458,-1505.0,-4830.0,411.25,-148.96,-243.2,-275.12
1940.0824,832.894,-157.929,601.948,-1601.25,-4401.25,472.5,-147.44,-253.84,-266.0
1940.1324,833.748,-159.576,600.362,-1461.25,-4865.0,533.75,-148.96,-269.04,-272.08
1940.1824,834.846,-159.21,599.935,-1601.25,-4891.25,691.25,-164.16,-258.4,-269.04
1940.2324,831.979,-159.271,601.094,-1540.0,-4768.75,551.25,-150.48,-259.92,-273.6
1940.2824,834.602,-160.064,601.155,-1688.75,-4847.5,446.25,-139.84,-246.24,-266.0
1940.3324,832.406,-157.746,601.826,-1583.75,-4917.5,525.0,-142.88,-246.24,-264.48
1940.3824,832.65,-158.783,599.691,-1513.75,-4646.25,691.25,-147.44,-253.84,-282.72
1940.4324,833.626,-158.844,603.229,-1548.75,-4628.75,498.75,-162.64,-262.96,-261.44
1940.4824,833.931,-159.576,599.386,-1566.25,-4725.0,446.25,-145.92,-250.8,-272.08
1940.5326,833.016,-159.088,599.081,-1671.25,-4760.0,288.75,-144.4,-255.36,-270.56
1940.5824,833.077,-159.149,600.85,-1391.25,-4751.25,665.0,-139.84,-255.36,-281.2
1940.6324,831.064,-159.515,600.484,-1452.5,-4751.25,726.25,-150.48,-259.92,-270.56
1940.6824,830.698,-160.247,600.911,-1618.75,-4725.0,490.0,-155.04,-258.4,-272.08
1940.7324,833.931,-158.539,599.691,-1478.75,-4803.75,367.5,-156.56,-249.28,-272.08
1940.7824,835.578,-159.149,601.887,-1627.5,-4515.0,411.25,-133.76,-269.04,-252.32
1940.8324,832.528,-156.892,600.057,-1531.25,-4462.5,673.75,-156.56,-261.44,-253.84
1940.8824,832.65,-157.319,601.216,-1548.75,-4917.5,796.25,-152.0,-256.88,-270.56
1940.9324,833.809,-158.173,599.752,-1487.5,-4733.75,743.75,-150.48,-249.28,-278.16
1940.9824,832.711,-156.282,604.266,-1636.25,-4672.5,498.75,-150.48,-259.92,-258.4
1941.0324,832.894,-159.271,600.24,-1426.25,-4733.75,367.5,-150.48,-269.04,-281.2
1941.0824,834.114,-160.491,600.911,-1417.5,-4970.0,787.5,-141.36,-256.88,-270.56
1941.1324,834.663,-159.027,600.667,-1513.75,-4698.75,761.25,-142.88,-253.84,-281.2
1941.1824,832.711,-159.515,601.338,-1601.25,-4795.0,647.5,-144.4,-256.88,-267.52
1941.2324,834.907,-158.478,604.327,-1566.25,-4690.0,437.5,-161.12,-243.2,-267.52
1941.2824,834.785,-160.003,600.545,-1540.0,-4655.0,428.75,-161.12,-270.56,-276.64
1941.3324,833.138,-157.685,599.569,-1382.5,-4830.0,752.5,-153.52,-262.96,-256.88
1941.3824,832.345,-160.308,599.691,-1531.25,-4716.25,700.0,-142.88,-252.32,-270.56
1941.4324,833.016,-158.051,598.532,-1487.5,-4742.5,437.5,-158.08,-249.28,-270.56
1941.4824,832.711,-156.953,601.643,-1487.5,-4716.25,402.5,-165.68,-266.0,-272.08
1941.5324,835.151,-159.942,600.24,-1548.75,-4611.25,551.25,-158.08,-249.28,-264.48
1941.5824,833.626,-158.966,600.667,-1592.5,-4768.75,621.25,-152.0,-250.8,-250.8
1941.6324,832.406,-162.809,600.606,-1496.25,-4725.0,586.25,-132.24,-269.04,-258.4
1941.6824,832.894,-157.258,602.07,-1513.75,-4751.25,595.0,-158.08,-256.88,-249.28
1941.7324,833.748,-161.955,600.545,-1618.75,-4523.75,516.25,-159.6,-270.56,-276.64
1941.7824,834.114,-156.831,602.192,-1496.25,-4830.0,630.0,-152.0,-256.88,-272.08
1941.8324,832.65,-160.125,601.216,-1583.75,-4698.75,805.0,-153.52,-255.36,-264.48
1941.8825,834.358,-158.966,600.057,-1513.75,-4401.25,595.0,-159.6,-250.8,-264.48
1941.9324,833.077,-158.905,602.558,-1513.75,-4812.5,411.25,-145.92,-255.36,-273.6
1941.9824,833.626,-159.21,598.166,-1522.5,-4488.75,595.0,-174.8,-259.92,-279.68
1942.0324,833.687,-158.661,602.375,-1505.0,-4725.0,682.5,-161.12,-246.24,-249.28
1942.0824,832.894,-160.003,600.24,-1531.25,-4882.5,743.75,-138.32,-255.36,-275.12
1942.1324,833.748,-159.942,602.497,-1522.5,-4830.0,376.25,-153.52,-259.92,-273.6
1942.1824,833.077,-158.966,600.789,-1548.75,-4611.25,323.75,-152.0,-246.24,-270.56
1942.2324,833.565,-156.77,600.423,-1505.0,-4777.5,778.75,-153.52,-243.2,-284.24
1942.2824,831.918,-160.43,600.423,-1408.75,-4716.25,656.25,-150.48,-266.0,-264.48
1942.3324,832.833,-158.6,603.168,-1408.75,-4698.75,735.0,-142.88,-255.36,-269.04
1942.3824,833.504,-158.6,598.959,-1592.5,-4751.25,350.0,-153.52,-250.8,-267.52
1942.4324,833.382,-158.6,602.314,-1566.25,-4576.25,402.5,-139.84,-252.32,-267.52
1942.4824,833.748,-158.234,603.168,-1583.75,-4550.0,507.5,-153.52,-261.44,-273.6
1942.5324,833.199,-157.868,601.399,-1443.75,-4655.0,726.25,-145.92,-262.96,-262.96
1942.5824,833.809,-159.027,603.229,-1548.75,-4760.0,770.0,-141.36,-261.44,-266.0
1942.6324,834.724,-156.648,601.765,-1461.25,-4576.25,271.25,-144.4,-256.88,-272.08
1942.6824,833.199,-159.393,599.386,-1540.0,-4830.0,472.5,-155.04,-262.96,-276.64
1942.7324,835.395,-159.942,600.057,-1548.75,-4935.0,463.75,-138.32,-261.44,-264.48
1942.7824,833.26,-159.088,603.046,-1548.75,-4943.75,656.25,-136.8,-252.32,-270.56
1942.8324,834.785,-160.186,599.142,-1522.5,-4558.75,586.25,-152.0,-258.4,-272.08
1942.8824,834.236,-157.502,599.935,-1540.0,-4698.75,411.25,-152.0,-262.96,-264.48
1942.9324,833.87,-159.881,599.813,-1531.25,-4943.75,560.0,-150.48,-256.88,-270.56
1942.9824,831.735,-159.759,600.728,-1478.75,-4611.25,586.25,-152.0,-256.88,-272.08
1943.0324,835.151,-158.173,600.728,-1575.0,-4681.25,682.5,-145.92,-256.88,-278.16
1943.0824,834.663,-159.332,601.338,-1513.75,-4567.5,490.0,-144.4,-250.8,-266.0
1943.1324,832.284,-159.82,598.593,-1592.5,-4733.75,393.75,-153.52,-262.96,-272.08
1943.1824,834.175,-157.807,601.094,-1496.25,-4628.75,481.25,-158.08,-261.44,-262.96
1943.2324,832.284,-159.393,601.094,-1496.25,-4506.25,735.0,-145.92,-246.24,-261.44
1943.2824,834.419,-160.491,601.155,-1575.0,-4427.5,595.0,-141.36,-244.72,-261.44
1943.3324,832.284,-157.746,600.789,-1636.25,-4690.0,568.75,-148.96,-241.68,-266.0
1943.3824,833.199,-159.088,600.85,-1540.0,-4646.25,280.0,-161.12,-261.44,-262.96
1943.4324,832.772,-155.367,598.471,-1592.5,-4725.0,700.0,-152.0,-256.88,-250.8
1943.4824,832.467,-159.149,600.179,-1312.5,-4585.0,603.75,-156.56,-258.4,-282.72
1943.5324,834.114,-158.6,603.778,-1452.5,-4646.25,446.25,-148.96,-246.24,-273.6
1943.5824,834.846,-161.101,599.325,-1627.5,-4900.0,402.5,-147.44,-250.8,-261.44
1943.6324,834.053,-159.393,601.765,-1557.5,-4506.25,420.0,-136.8,-255.36,-255.36
1943.6824,831.369,-160.369,600.118,-1557.5,-4751.25,770.0,-156.56,-267.52,-273.6
1943.7324,833.748,-158.295,599.325,-1382.5,-4873.75,805.0,-150.48,-252.32,-272.08
1943.7824,834.236,-158.783,601.216,-1391.25,-4873.75,700.0,-135.28,-258.4,-272.08
1943.8324,830.942,-158.295,599.264,-1531.25,-4935.0,227.5,-147.44,-247.76,-259.92
1943.8824,834.419,-158.173,601.033,-1452.5,-4733.75,376.25,-150.48,-258.4,-266.0
1943.9324,834.297,-158.112,599.325,-1338.75,-4812.5,726.25,-141.36,-256.88,-282.72
1943.9824,834.541,-158.234,601.948,-1531.25,-4716.25,682.5,-165.68,-246.24,-262.96
1944.0324,833.809,-158.722,601.216,-1548.75,-4830.0,656.25,-144.4,-256.88,-272.08
1944.0824,833.565,-159.21,601.155,-1566.25,-4541.25,358.75,-152.0,-270.56,-270.56
1944.1324,833.748,-156.343,600.789,-1470.0,-4751.25,472.5,-150.48,-253.84,-269.04
1944.1824,832.406,-159.942,599.691,-1618.75,-4908.75,638.75,-141.36,-256.88,-256.88
1944.2324,833.504,-158.6,599.081,-1470.0,-4961.25,577.5,-139.84,-261.44,-273.6
1944.2824,834.053,-158.417,600.423,-1583.75,-4418.75,638.75,-147.44,-253.84,-272.08
1944.3324,833.077,-158.783,601.033,-1496.25,-4576.25,350.0,-158.08,-253.84,-269.04
1944.3824,835.09,-160.003,603.778,-1583.75,-4935.0,621.25,-139.84,-255.36,-287.28
1944.4324,833.809,-161.406,602.436,-1478.75,-4812.5,621.25,-145.92,-270.56,-262.96
1944.4826,834.297,-157.746,602.253,-1557.5,-4480.0,560.0,-148.96,-264.48,-255.36
1944.5324,831.125,-159.576,600.606,-1435.0,-4786.25,428.75,-155.04,-269.04,-269.04
1944.5825,834.968,-157.624,600.179,-1566.25,-4698.75,586.25,-158.08,-270.56,-270.56
1944.6324,834.541,-158.783,600.362,-1540.0,-4891.25,612.5,-147.44,-253.84,-261.44
1944.6824,835.944,-157.319,599.508,-1522.5,-4742.5,840.0,-148.96,-269.04,-272.08
1944.7324,834.358,-159.576,601.033,-1601.25,-4725.0,490.0,-153.52,-264.48,-266.0
1944.7824,832.284,-156.709,601.704,-1566.25,-4628.75,332.5,-147.44,-253.84,-264.48
1944.8324,834.968,-157.624,601.643,-1662.5,-4812.5,717.5,-148.96,-258.4,-288.8
1944.8824,834.48,-157.319,601.277,-1391.25,-4961.25,796.25,-136.8,-246.24,-267.52
1944.9324,832.711,-160.125,602.558,-1540.0,-4733.75,691.25,-150.48,-250.8,-270.56
1944.9824,831.369,-159.454,600.85,-1750.0,-4655.0,358.75,-161.12,-252.32,-253.84
1945.0324,831.979,-159.393,600.423,-1653.75,-4576.25,437.5,-159.6,-247.76,-272.08
1945.0824,834.846,-158.966,599.203,-1496.25,-4707.5,647.5,-148.96,-247.76,-262.96
1945.1324,831.064,-158.722,600.911,-1653.75,-4733.75,848.75,-150.48,-258.4,-273.6
1945.1824,834.541,-158.478,600.24,-1391.25,-5040.0,743.75,-139.84,-252.32,-267.52
1945.2324,833.138,-159.149,600.301,-1601.25,-4900.0,367.5,-145.92,-256.88,-273.6
1945.2824,833.199,-158.051,601.46,-1443.75,-4760.0,323.75,-159.6,-261.44,-264.48
1945.3324,833.992,-159.454,600.118,-1505.0,-4733.75,525.0,-147.44,-259.92,-279.68
1945.3824,835.7,-159.759,603.107,-1548.75,-4690.0,691.25,-148.96,-243.2,-258.4
1945.4324,833.199,-157.319,600.24,-1417.5,-4926.25,612.5,-145.92,-259.92,-262.96
1945.4824,832.101,-158.112,599.264,-1557.5,-4856.25,358.75,-147.44,-261.44,-262.96
1945.5324,832.162,-157.868,601.277,-1645.0,-4803.75,490.0,-153.52,-249.28,-258.4
1945.5824,835.883,-158.966,604.876,-1365.0,-4698.75,463.75,-139.84,-252.32,-272.08
1945.6324,832.345,-156.587,600.85,-1443.75,-5048.75,638.75,-139.84,-255.36,-278.16
1945.6824,834.602,-158.112,601.094,-1697.5,-4655.0,612.5,-150.48,-259.92,-273.6
1945.7324,832.772,-157.929,600.728,-1645.0,-4716.25,516.25,-139.84,-256.88,-270.56
1945.7824,831.735,-158.173,601.399,-1557.5,-4602.5,577.5,-161.12,-255.36,-261.44
1945.8325,833.748,-160.247,601.46,-1557.5,-4733.75,630.0,-144.4,-264.48,-269.04
1945.8824,835.212,-158.295,599.447,-1505.0,-4812.5,507.5,-153.52,-252.32,-267.52
1945.9324,833.321,-159.027,601.765,-1531.25,-4847.5,490.0,-147.44,-287.28,-276.64
1945.9824,833.26,-158.417,602.497,-1610.0,-4681.25,402.5,-168.72,-256.88,-269.04
1946.0324,833.443,-158.478,602.436,-1452.5,-4646.25,595.0,-139.84,-259.92,-273.6
1946.0824,835.944,-157.99,599.752,-1513.75,-4917.5,787.5,-139.84,-250.8,-272.08
1946.1324,833.809,-157.685,602.192,-1487.5,-4873.75,393.75,-127.68,-244.72,-259.92
1946.1824,833.687,-157.075,601.826,-1697.5,-4471.25,420.0,-145.92,-249.28,-273.6
1946.2324,834.968,-157.807,600.484,-1496.25,-4900.0,367.5,-168.72,-252.32,-267.52
1946.2824,836.127,-157.746,600.545,-1417.5,-4978.75,673.75,-150.48,-261.44,-278.16
1946.3324,833.443,-157.075,601.582,-1461.25,-4655.0,735.0,-136.8,-258.4,-276.64
1946.3824,832.162,-155.733,602.558,-1557.5,-4628.75,437.5,-152.0,-258.4,-272.08
1946.4324,835.273,-158.173,599.447,-1522.5,-4838.75,210.0,-153.52,-261.44,-247.76
1946.4824,834.541,-157.38,599.447,-1636.25,-4462.5,516.25,-150.48,-247.76,-273.6
1946.5324,832.345,-158.478,600.85,-1470.0,-4620.0,735.0,-139.84,-269.04,-264.48
1946.5824,836.92,-160.125,599.569,-1461.25,-4943.75,857.5,-141.36,-249.28,-273.6
1946.6324,831.796,-157.014,600.057,-1531.25,-4725.0,673.75,-145.92,-266.0,-259.92
1946.6824,834.968,-159.271,601.033,-1618.75,-4628.75,376.25,-141.36,-272.08,-269.04
1946.7324,833.87,-156.587,603.534,-1592.5,-4436.25,393.75,-155.04,-250.8,-282.72
1946.7824,832.711,-160.369,600.118,-1592.5,-4760.0,796.25,-148.96,-252.32,-258.4
1946.8324,834.48,-158.173,600.789,-1426.25,-4838.75,787.5,-147.44,-259.92,-272.08
1946.8824,834.724,-158.295,599.874,-1618.75,-4602.5,507.5,-150.48,-262.96,-267.52
1946.9324,832.04,-156.953,600.85,-1715.0,-4550.0,455.0,-153.52,-255.36,-272.08
1946.9824,831.064,-160.796,599.691,-1452.5,-4602.5,490.0,-145.92,-264.48,-275.12
1947.0324,832.894,-159.637,599.752,-1443.75,-4768.75,761.25,-142.88,-262.96,-282.72
1947.0824,832.162,-159.271,600.972,-1557.5,-4663.75,673.75,-164.16,-270.56,-276.64
1947.1324,833.321,-155.123,600.423,-1566.25,-4900.0,551.25,-168.72,-262.96,-267.52
1947.1825,833.26,-157.868,600.972,-1610.0,-4795.0,446.25,-170.24,-243.2,-258.4
1947.2324,833.687,-158.051,601.826,-1443.75,-4488.75,551.25,-142.88,-273.6,-279.68
1947.2824,833.748,-157.136,600.789,-1627.5,-4838.75,822.5,-139.84,-253.84,-278.16
1947.3324,833.321,-156.465,600.972,-1531.25,-4952.5,507.5,-171.76,-269.04,-259.92
1947.3824,832.528,-160.003,598.105,-1601.25,-4917.5,542.5,-150.48,-262.96,-276.64
1947.4324,831.979,-157.136,598.532,-1417.5,-4497.5,577.5,-156.56,-256.88,-259.92
1947.4824,831.857,-160.003,599.569,-1618.75,-4908.75,761.25,-135.28,-261.44,-272.08
1947.5324,832.894,-157.563,600.972,-1452.5,-4795.0,630.0,-153.52,-243.2,-264.48
1947.5824,833.26,-160.125,603.046,-1636.25,-4751.25,525.0,-170.24,-253.84,-272.08
1947.6324,833.199,-158.661,601.155,-1496.25,-4795.0,306.25,-165.68,-229.52,-278.16
1947.6824,834.297,-158.6,601.765,-1557.5,-4768.75,603.75,-135.28,-250.8,-270.56
1947.7324,834.175,-157.38,601.826,-1443.75,-4900.0,787.5,-148.96,-270.56,-262.96
1947.7824,834.419,-161.284,599.935,-1478.75,-4943.75,796.25,-155.04,-253.84,-264.48
1947.8324,833.382,-156.282,600.484,-1417.5,-4716.25,245.0,-139.84,-261.44,-278.16
1947.8824,835.395,-157.807,597.8,-1697.5,-4558.75,393.75,-138.32,-247.76,-276.64
1947.9324,834.236,-160.247,598.105,-1496.25,-5040.0,752.5,-150.48,-264.48,-278.16
1947.9824,833.321,-158.722,603.229,-1575.0,-4707.5,840.0,-153.52,-259.92,-267.52
1948.0324,832.162,-158.295,602.009,-1426.25,-4865.0,691.25,-161.12,-250.8,-273.6
1948.0824,833.199,-155.855,601.765,-1557.5,-4567.5,428.75,-156.56,-255.36,-285.76
1948.1324,834.358,-158.234,603.717,-1461.25,-4725.0,358.75,-145.92,-253.84,-264.48
1948.1824,832.345,-158.356,600.789,-1688.75,-4453.75,595.0,-155.04,-267.52,-272.08
1948.2324,833.321,-156.892,601.948,-1610.0,-4620.0,752.5,-152.0,-247.76,-264.48
1948.2824,833.077,-158.783,601.521,-1583.75,-4725.0,586.25,-145.92,-253.84,-264.48
1948.3324,832.833,-158.722,602.314,-1583.75,-4445.0,201.25,-138.32,-266.0,-270.56
1948.3824,833.443,-157.746,601.643,-1653.75,-4628.75,533.75,-150.48,-258.4,-270.56
1948.4326,833.626,-157.624,599.447,-1487.5,-4768.75,630.0,-162.64,-267.52,-262.96
1948.4824,834.541,-159.881,597.739,-1417.5,-4882.5,708.75,-153.52,-253.84,-264.48
1948.5324,832.589,-157.441,599.325,-1487.5,-4716.25,516.25,-129.2,-266.0,-273.6
1948.5824,832.833,-158.356,600.911,-1627.5,-4830.0,507.5,-133.76,-249.28,-264.48
1948.6324,835.212,-157.197,600.911,-1531.25,-4751.25,612.5,-147.44,-259.92,-278.16
1948.6824,831.918,-158.722,601.704,-1531.25,-5206.25,796.25,-162.64,-252.32,-276.64
1948.7324,832.284,-157.075,599.874,-1382.5,-4943.75,533.75,-144.4,-244.72,-261.44
1948.7824,832.467,-157.624,600.362,-1575.0,-4646.25,428.75,-148.96,-246.24,-276.64
1948.8324,833.199,-157.502,597.251,-1583.75,-4532.5,297.5,-148.96,-255.36,-281.2
1948.8824,833.931,-159.088,599.02,-1566.25,-4725.0,743.75,-156.56,-273.6,-262.96
1948.9324,832.406,-158.539,599.325,-1470.0,-4812.5,735.0,-161.12,-247.76,-266.0
1948.9824,834.236,-159.332,602.619,-1601.25,-4637.5,490.0,-136.8,-253.84,-264.48
1949.0324,832.345,-159.637,601.155,-1575.0,-4707.5,376.25,-141.36,-255.36,-261.44
1949.0824,833.992,-157.685,602.619,-1426.25,-4725.0,393.75,-150.48,-253.84,-262.96
1949.1324,834.724,-158.661,599.752,-1391.25,-5022.5,805.0,-144.4,-272.08,-275.12
1949.1824,831.369,-158.539,601.216,-1557.5,-4777.5,787.5,-138.32,-246.24,-272.08
1949.2324,834.663,-159.576,599.691,-1575.0,-4585.0,297.5,-153.52,-261.44,-278.16
1949.2824,833.26,-157.99,599.996,-1487.5,-4655.0,411.25,-144.4,-266.0,-262.96
1949.3324,832.467,-156.343,600.24,-1583.75,-4725.0,402.5,-133.76,-259.92,-264.48
1949.3824,833.748,-157.441,601.46,-1566.25,-4672.5,717.5,-144.4,-258.4,-267.52
1949.4324,829.905,-158.539,601.582,-1426.25,-4733.75,761.25,-136.8,-252.32,-269.04
1949.4824,834.724,-156.404,602.497,-1531.25,-4882.5,568.75,-144.4,-270.56,-262.96
1949.5324,836.188,-158.6,600.057,-1531.25,-4523.75,393.75,-148.96,-258.4,-272.08
1949.5824,833.626,-159.82,600.972,-1540.0,-4576.25,542.5,-135.28,-243.2,-273.6
1949.6324,834.175,-159.271,600.606,-1522.5,-4733.75,717.5,-155.04,-255.36,-272.08
1949.6824,834.114,-157.746,602.253,-1566.25,-4585.0,761.25,-135.28,-247.76,-270.56
1949.7324,834.907,-157.868,601.643,-1426.25,-4856.25,516.25,-153.52,-252.32,-267.52
1949.7826,832.589,-157.563,601.216,-1557.5,-4821.25,297.5,-150.48,-267.52,-272.08
1949.8324,835.09,-158.051,598.349,-1540.0,-4690.0,638.75,-148.96,-247.76,-270.56
1949.8824,835.761,-157.441,600.423,-1627.5,-4803.75,682.5,-138.32,-259.92,-269.04
1949.9324,834.419,-159.332,600.85,-1627.5,-4795.0,673.75,-145.92,-259.92,-269.04
1949.9824,833.748,-158.173,601.704,-1575.0,-5022.5,463.75,-148.96,-249.28,-269.04
1950.0324,834.175,-157.807,601.277,-1487.5,-4935.0,568.75,-155.04,-240.16,-266.0
1950.0824,834.358,-157.99,599.447,-1531.25,-4725.0,673.75,-136.8,-259.92,-273.6
1950.1324,833.748,-159.088,600.179,-1627.5,-4655.0,805.0,-136.8,-264.48,-272.08
1950.1824,833.382,-158.783,600.057,-1461.25,-4672.5,420.0,-159.6,-262.96,-261.44
1950.2324,833.565,-156.709,598.41,-1645.0,-4698.75,420.0,-141.36,-252.32,-253.84
1950.2824,834.236,-158.905,601.521,-1478.75,-4838.75,568.75,-142.88,-253.84,-270.56
1950.3324,834.053,-159.088,601.521,-1706.25,-4795.0,857.5,-142.88,-249.28,-270.56
1950.3824,831.064,-159.881,601.887,-1373.75,-4891.25,647.5,-159.6,-253.84,-266.0
1950.4324,833.504,-155.367,602.192,-1680.0,-4698.75,455.0,-153.52,-266.0,-282.72
1950.4824,831.979,-157.502,601.948,-1618.75,-4777.5,297.5,-153.52,-266.0,-255.36
1950.5324,832.711,-158.051,602.192,-1522.5,-4698.75,665.0,-142.88,-249.28,-285.76
1950.5824,833.687,-158.661,600.972,-1312.5,-4777.5,665.0,-162.64,-272.08,-259.92
1950.6324,832.589,-155.855,604.022,-1706.25,-4628.75,796.25,-158.08,-273.6,-267.52
1950.6824,834.48,-160.43,599.691,-1592.5,-4681.25,420.0,-155.04,-256.88,-275.12
1950.7324,834.053,-156.16,600.484,-1373.75,-4550.0,288.75,-147.44,-249.28,-256.88
1950.7824,833.626,-160.064,601.216,-1618.75,-4707.5,840.0,-158.08,-256.88,-287.28
1950.8324,833.016,-159.515,600.484,-1400.0,-4838.75,752.5,-156.56,-270.56,-269.04
1950.8824,832.711,-157.38,602.497,-1496.25,-4882.5,647.5,-150.48,-264.48,-264.48
1950.9324,834.602,-158.051,602.802,-1522.5,-4777.5,341.25,-153.52,-246.24,-258.4
1950.9824,833.382,-157.99,602.009,-1540.0,-4655.0,560.0,-141.36,-261.44,-281.2
1951.0324,833.687,-158.417,599.63,-1592.5,-4611.25,542.5,-153.52,-253.84,-261.44
1951.0824,833.382,-159.637,601.094,-1706.25,-4681.25,691.25,-155.04,-250.8,-262.96
1951.1325,831.491,-159.393,599.935,-1426.25,-4961.25,612.5,-158.08,-256.88,-284.24
1951.1824,832.833,-155.672,599.081,-1470.0,-4900.0,393.75,-132.24,-256.88,-279.68
1951.2324,832.589,-156.831,599.264,-1452.5,-4663.75,551.25,-153.52,-266.0,-270.56
1951.2824,833.443,-158.295,600.972,-1513.75,-4558.75,621.25,-147.44,-264.48,-270.56
1951.3324,834.541,-159.515,600.667,-1496.25,-4838.75,726.25,-144.4,-247.76,-267.52
1951.3824,832.528,-158.6,600.484,-1566.25,-4602.5,533.75,-127.68,-243.2,-267.52
1951.4324,833.931,-157.441,599.752,-1583.75,-4261.25,463.75,-144.4,-252.32,-272.08
1951.4824,832.162,-158.661,599.935,-1566.25,-4576.25,638.75,-155.04,-264.48,-250.8
1951.5324,833.748,-159.881,599.813,-1435.0,-4865.0,691.25,-171.76,-256.88,-267.52
1951.5824,833.26,-160.43,600.179,-1627.5,-4602.5,490.0,-150.48,-262.96,-266.0
1951.6324,834.297,-158.539,599.691,-1513.75,-4646.25,393.75,-148.96,-229.52,-279.68
1951.6824,831.674,-157.258,599.63,-1417.5,-4751.25,227.5,-139.84,-258.4,-276.64
1951.7324,833.321,-157.136,601.826,-1478.75,-4935.0,743.75,-150.48,-258.4,-256.88
1951.7824,832.772,-159.027,600.179,-1513.75,-4663.75,787.5,-152.0,-256.88,-259.92
1951.8324,833.26,-159.637,599.325,-1627.5,-4602.5,446.25,-159.6,-244.72,-273.6
1951.8824,834.175,-158.234,603.778,-1522.5,-4917.5,280.0,-136.8,-255.36,-267.52
1951.9324,835.883,-158.661,598.349,-1610.0,-4663.75,402.5,-156.56,-249.28,-264.48
1951.9824,832.955,-157.807,602.802,-1627.5,-4541.25,901.25,-135.28,-256.88,-279.68
1952.0324,832.589,-159.515,601.521,-1408.75,-5145.0,726.25,-156.56,-253.84,-258.4
1952.0824,832.894,-158.966,600.85,-1347.5,-4943.75,210.0,-152.0,-259.92,-264.48
1952.1324,833.199,-158.295,599.142,-1671.25,-4707.5,402.5,-135.28,-249.28,-258.4
1952.1824,834.968,-158.295,598.41,-1636.25,-4698.75,577.5,-158.08,-261.44,-278.16
1952.2324,833.016,-160.186,604.571,-1496.25,-4830.0,708.75,-164.16,-266.0,-266.0
1952.2824,834.419,-157.685,600.85,-1566.25,-4952.5,630.0,-156.56,-244.72,-282.72
1952.3324,833.809,-159.82,601.643,-1408.75,-4812.5,560.0,-148.96,-241.68,-272.08
1952.3824,831.857,-155.306,602.07,-1461.25,-4585.0,481.25,-139.84,-261.44,-262.96
1952.4324,833.565,-157.258,600.423,-1408.75,-4917.5,516.25,-136.8,-261.44,-266.0
1952.4825,835.029,-158.051,601.46,-1557.5,-4830.0,726.25,-161.12,-249.28,-273.6
1952.5324,832.772,-159.332,600.728,-1478.75,-4935.0,665.0,-155.04,-253.84,-259.92
1952.5824,835.822,-159.149,597.8,-1653.75,-4698.75,498.75,-138.32,-243.2,-266.0
1952.6324,834.053,-159.088,600.484,-1601.25,-4375.0,420.0,-145.92,-243.2,-276.64
1952.6824,832.101,-157.746,600.85,-1575.0,-4847.5,568.75,-164.16,-267.52,-270.56
1952.7324,836.798,-159.149,598.837,-1522.5,-4786.25,708.75,-147.44,-256.88,-270.56
1952.7824,832.772,-156.526,601.399,-1688.75,-4838.75,647.5,-148.96,-243.2,-275.12
1952.8324,836.249,-159.21,598.959,-1531.25,-4908.75,253.75,-138.32,-250.8,-279.68
1952.8824,833.809,-155.672,600.057,-1583.75,-4567.5,682.5,-145.92,-253.84,-264.48
1952.9324,831.186,-160.125,601.277,-1400.0,-4821.25,708.75,-156.56,-252.32,-259.92
1952.9824,832.345,-155.916,602.009,-1662.5,-4768.75,525.0,-161.12,-253.84,-267.52
1953.0324,834.968,-158.539,600.789,-1566.25,-4681.25,350.0,-150.48,-252.32,-276.64
1953.0824,833.809,-158.6,602.863,-1627.5,-4838.75,490.0,-144.4,-252.32,-278.16
1953.1324,834.419,-160.064,601.46,-1496.25,-4558.75,665.0,-147.44,-253.84,-270.56
1953.1824,834.846,-155.977,600.362,-1461.25,-4812.5,778.75,-156.56,-253.84,-249.28
1953.2324,835.456,-161.711,601.277,-1557.5,-4873.75,700.0,-141.36,-246.24,-273.6
1953.2824,833.504,-158.6,601.094,-1391.25,-4865.0,306.25,-129.2,-249.28,-276.64
1953.3324,833.687,-160.674,598.41,-1601.25,-4558.75,367.5,-135.28,-262.96,-267.52
1953.3824,834.907,-159.027,599.142,-1408.75,-4768.75,498.75,-155.04,-258.4,-273.6
1953.4324,831.491,-156.587,602.619,-1601.25,-4698.75,848.75,-141.36,-258.4,-272.08
1953.4824,834.297,-159.454,597.556,-1540.0,-4847.5,796.25,-147.44,-259.92,-262.96
1953.5324,833.748,-158.173,598.898,-1540.0,-4733.75,315.0,-139.84,-256.88,-269.04
1953.5824,830.149,-155.977,600.301,-1443.75,-4856.25,210.0,-155.04,-261.44,-272.08
1953.6324,834.48,-159.21,600.423,-1653.75,-4952.5,910.0,-147.44,-250.8,-270.56
1953.6824,834.358,-162.687,601.338,-1303.75,-4698.75,656.25,-145.92,-255.36,-285.76
1953.7326,832.711,-155.428,600.667,-1548.75,-4865.0,726.25,-135.28,-240.16,-259.92
1953.7824,837.591,-159.027,598.898,-1645.0,-4646.25,376.25,-155.04,-250.8,-259.92
1953.8324,833.382,-157.136,598.044,-1592.5,-4445.0,516.25,-159.6,-252.32,-266.0
1953.8824,830.515,-158.905,600.545,-1347.5,-5022.5,525.0,-150.48,-250.8,-273.6
1953.9324,834.236,-156.16,596.946,-1365.0,-4707.5,560.0,-145.92,-256.88,-262.96
1953.9824,831.43,-157.807,602.436,-1627.5,-4663.75,700.0,-156.56,-252.32,-270.56
1954.0324,835.151,-159.82,599.447,-1723.75,-4567.5,525.0,-152.0,-272.08,-269.04
1954.0824,833.138,-156.221,601.521,-1478.75,-4593.75,525.0,-155.04,-255.36,-276.64
1954.1324,832.589,-157.197,602.192,-1601.25,-4970.0,700.0,-139.84,-258.4,-276.64
1954.1824,837.469,-158.478,600.667,-1785.0,-4760.0,726.25,-148.96,-244.72,-256.88
1954.2324,833.077,-159.149,601.216,-1443.75,-4541.25,315.0,-152.0,-247.76,-267.52
1954.2824,833.199,-156.16,603.229,-1566.25,-4786.25,516.25,-148.96,-264.48,-276.64
1954.3324,832.711,-158.722,600.24,-1540.0,-4786.25,682.5,-162.64,-264.48,-266.0
1954.3824,836.066,-157.929,599.325,-1408.75,-4978.75,630.0,-152.0,-261.44,-267.52
1954.4324,831.674,-157.746,601.216,-1496.25,-4838.75,446.25,-127.68,-267.52,-270.56
1954.4824,834.541,-156.892,601.704,-1540.0,-4873.75,446.25,-148.96,-261.44,-273.6
1954.5324,835.212,-158.051,600.972,-1522.5,-4515.0,332.5,-165.68,-250.8,-267.52
1954.5824,833.443,-159.271,600.911,-1487.5,-4742.5,630.0,-155.04,-262.96,-267.52
1954.6324,834.724,-156.343,601.643,-1496.25,-4830.0,743.75,-130.72,-259.92,-261.44
1954.6824,834.175,-159.515,600.667,-1505.0,-4690.0,481.25,-145.92,-249.28,-282.72
1954.7324,836.31,-159.454,602.192,-1671.25,-4593.75,262.5,-156.56,-252.32,-272.08
1954.7824,832.955,-161.101,602.497,-1540.0,-4585.0,393.75,-150.48,-249.28,-266.0
1954.8324,833.809,-157.502,601.277,-1583.75,-4725.0,778.75,-139.84,-243.2,-264.48
1954.8824,835.212,-157.868,600.362,-1522.5,-4690.0,673.75,-141.36,-261.44,-247.76
1954.9324,833.138,-157.624,599.325,-1548.75,-4725.0,306.25,-161.12,-259.92,-267.52
1954.9824,834.175,-159.149,599.02,-1575.0,-4471.25,288.75,-150.48,-259.92,-261.44
1955.0324,834.175,-158.112,600.301,-1662.5,-4602.5,507.5,-148.96,-253.84,-267.52
1955.0825,833.687,-158.905,601.704,-1522.5,-4672.5,805.0,-145.92,-264.48,-273.6
1955.1324,832.833,-158.051,598.715,-1487.5,-4637.5,647.5,-138.32,-249.28,-275.12
1955.1824,833.077,-160.552,602.253,-1505.0,-4795.0,498.75,-147.44,-262.96,-272.08
1955.2324,834.602,-156.404,599.752,-1583.75,-4698.75,393.75,-150.48,-259.92,-266.0
1955.2824,834.419,-158.539,600.24,-1540.0,-4611.25,577.5,-148.96,-250.8,-287.28
1955.3324,832.65,-157.441,601.216,-1645.0,-4830.0,691.25,-156.56,-253.84,-262.96
1955.3824,830.027,-159.637,601.216,-1522.5,-4725.0,656.25,-152.0,-261.44,-279.68
1955.4324,833.382,-157.38,600.179,-1505.0,-4961.25,393.75,-153.52,-256.88,-264.48
1955.4824,833.016,-158.844,601.582,-1531.25,-4646.25,481.25,-150.48,-261.44,-264.48
1955.5324,834.419,-157.746,598.227,-1470.0,-4821.25,630.0,-156.56,-250.8,-273.6
1955.5824,834.907,-157.441,602.253,-1610.0,-4646.25,507.5,-141.36,-255.36,-279.68
1955.6324,834.236,-156.587,601.399,-1513.75,-4716.25,586.25,-159.6,-253.84,-262.96
1955.6824,832.345,-158.173,600.789,-1575.0,-4786.25,463.75,-147.44,-253.84,-256.88
1955.7324,833.504,-157.99,600.057,-1391.25,-4821.25,455.0,-156.56,-267.52,-279.68
1955.7824,834.724,-158.295,600.728,-1408.75,-4646.25,665.0,-150.48,-246.24,-259.92
1955.8324,832.955,-159.393,599.02,-1478.75,-4961.25,542.5,-141.36,-256.88,-267.52
1955.8824,832.955,-157.746,600.789,-1741.25,-4585.0,481.25,-145.92,-267.52,-264.48
1955.9324,833.321,-156.587,601.643,-1522.5,-4830.0,350.0,-155.04,-247.76,-278.16
1955.9824,834.724,-160.308,599.63,-1417.5,-4900.0,691.25,-155.04,-255.36,-261.44
1956.0324,833.687,-157.563,602.192,-1478.75,-4646.25,638.75,-139.84,-262.96,-256.88
1956.0824,833.626,-157.99,600.118,-1470.0,-4838.75,796.25,-141.36,-258.4,-256.88
1956.1324,835.578,-158.966,600.728,-1583.75,-4725.0,323.75,-159.6,-261.44,-278.16
1956.1824,835.944,-157.624,600.118,-1627.5,-4821.25,393.75,-162.64,-243.2,-264.48
1956.2324,833.077,-157.563,599.447,-1478.75,-4663.75,752.5,-138.32,-253.84,-288.8
1956.2824,833.321,-158.661,599.874,-1513.75,-4725.0,752.5,-147.44,-261.44,-276.64
1956.3324,831.979,-157.929,600.728,-1400.0,-4952.5,665.0,-150.48,-266.0,-262.96
1956.3824,834.907,-158.539,601.277,-1575.0,-5083.75,341.25,-150.48,-253.84,-250.8
1956.4325,831.857,-158.6,600.789,-1662.5,-4690.0,533.75,-155.04,-241.68,-272.08
1956.4824,835.334,-157.99,601.399,-1531.25,-4725.0,910.0,-148.96,-247.76,-264.48
1956.5324,832.955,-157.624,603.107,-1452.5,-4865.0,700.0,-145.92,-247.76,-278.16
1956.5824,832.65,-159.088,598.593,-1706.25,-4672.5,700.0,-159.6,-261.44,-275.12
1956.6324,833.382,-160.064,599.874,-1592.5,-4471.25,446.25,-161.12,-255.36,-272.08
1956.6824,834.846,-158.173,601.094,-1610.0,-4733.75,498.75,-142.88,-258.4,-275.12
1956.7324,833.443,-158.417,601.155,-1461.25,-4812.5,638.75,-145.92,-258.4,-264.48
1956.7824,837.286,-156.77,598.044,-1531.25,-4803.75,743.75,-159.6,-249.28,-287.28
1956.8324,834.236,-158.783,599.142,-1531.25,-4585.0,481.25,-155.04,-267.52,-258.4
1956.8824,834.541,-156.831,603.168,-1618.75,-4532.5,420.0,-158.08,-255.36,-256.88
1956.9324,835.761,-160.003,602.741,-1697.5,-4558.75,621.25,-139.84,-241.68,-270.56
1956.9824,834.236,-160.735,599.935,-1356.25,-4803.75,595.0,-147.44,-262.96,-281.2
1957.0324,832.833,-155.428,600.301,-1496.25,-4768.75,577.5,-159.6,-259.92,-267.52
1957.0824,831.491,-158.234,602.68,-1645.0,-4830.0,446.25,-145.92,-252.32,-276.64
1957.1324,833.687,-157.685,601.216,-1575.0,-4646.25,568.75,-135.28,-243.2,-262.96
1957.1824,832.528,-157.685,600.667,-1470.0,-4725.0,665.0,-144.4,-247.76,-264.48
1957.2324,832.345,-158.295,599.996,-1522.5,-4576.25,770.0,-159.6,-259.92,-284.24
1957.2824,831.674,-159.881,599.447,-1513.75,-4698.75,481.25,-139.84,-246.24,-269.04
1957.3324,835.456,-156.77,600.057,-1575.0,-4707.5,428.75,-147.44,-258.4,-262.96
1957.3824,832.955,-157.929,600.606,-1653.75,-4620.0,358.75,-144.4,-252.32,-270.56
1957.4324,833.26,-157.868,598.776,-1540.0,-4786.25,752.5,-142.88,-258.4,-252.32
1957.4824,832.711,-159.393,599.325,-1330.0,-4847.5,743.75,-148.96,-269.04,-276.64
1957.5324,833.748,-157.075,598.41,-1496.25,-4812.5,376.25,-148.96,-249.28,-279.68
1957.5824,833.199,-159.637,599.874,-1636.25,-4725.0,367.5,-155.04,-258.4,-262.96
1957.6324,833.504,-157.563,598.776,-1417.5,-4392.5,288.75,-142.88,-261.44,-285.76
1957.6824,834.48,-156.526,600.484,-1505.0,-4961.25,743.75,-152.0,-266.0,-258.4
1957.7324,836.615,-158.051,598.715,-1478.75,-4821.25,700.0,-158.08,-249.28,-258.4
1957.7825,834.846,-158.051,601.216,-1610.0,-4663.75,437.5,-167.2,-255.36,-262.96
1957.8324,834.968,-159.698,599.63,-1583.75,-4488.75,262.5,-144.4,-246.24,-262.96
1957.8824,834.48,-156.038,601.643,-1557.5,-4786.25,498.75,-142.88,-256.88,-272.08
1957.9324,833.26,-157.868,600.179,-1435.0,-5075.0,717.5,-152.0,-276.64,-264.48
1957.9824,832.955,-158.295,600.545,-1487.5,-4567.5,673.75,-153.52,-266.0,-261.44
1958.0324,832.284,-160.064,598.898,-1531.25,-4795.0,621.25,-150.48,-266.0,-269.04
1958.0824,832.223,-159.637,601.948,-1575.0,-4742.5,463.75,-153.52,-253.84,-273.6
1958.1324,836.554,-159.881,601.643,-1566.25,-4628.75,551.25,-156.56,-258.4,-273.6
1958.1824,835.761,-156.526,601.46,-1461.25,-4698.75,638.75,-164.16,-276.64,-284.24
1958.2324,831.186,-158.295,601.155,-1531.25,-4655.0,551.25,-159.6,-250.8,-261.44
1958.2824,832.894,-158.356,598.959,-1531.25,-4733.75,481.25,-142.88,-256.88,-262.96
1958.3324,833.443,-157.746,602.375,-1522.5,-4865.0,568.75,-156.56,-262.96,-281.2
1958.3824,832.772,-158.661,599.02,-1373.75,-4978.75,665.0,-152.0,-259.92,-267.52
1958.4324,832.955,-156.16,601.277,-1461.25,-4952.5,551.25,-153.52,-267.52,-275.12
1958.4824,833.016,-158.6,601.216,-1601.25,-4681.25,437.5,-150.48,-247.76,-259.92
1958.5324,833.626,-160.003,600.545,-1583.75,-4585.0,402.5,-138.32,-252.32,-266.0
1958.5824,833.87,-157.746,600.179,-1356.25,-4838.75,490.0,-145.92,-256.88,-256.88
1958.6324,834.419,-159.027,599.874,-1636.25,-4532.5,743.75,-167.2,-270.56,-278.16
1958.6824,833.321,-159.149,601.338,-1653.75,-4471.25,507.5,-145.92,-249.28,-278.16
1958.7324,833.443,-157.746,600.423,-1601.25,-4733.75,455.0,-147.44,-250.8,-266.0
1958.7824,834.297,-157.197,600.118,-1443.75,-4733.75,271.25,-164.16,-262.96,-281.2
1958.8324,833.87,-156.953,601.582,-1417.5,-4760.0,691.25,-167.2,-253.84,-276.64
1958.8824,834.785,-158.356,598.715,-1531.25,-4681.25,901.25,-147.44,-250.8,-259.92
1958.9324,831.674,-157.929,601.338,-1557.5,-4655.0,805.0,-138.32,-259.92,-256.88
1958.9824,833.687,-158.051,601.155,-1636.25,-4480.0,315.0,-150.48,-246.24,-275.12
1959.0324,830.881,-158.356,601.277,-1461.25,-4663.75,297.5,-148.96,-261.44,-276.64
1959.0824,833.626,-158.478,600.545,-1356.25,-4803.75,638.75,-153.52,-256.88,-272.08
1959.1325,835.883,-157.99,601.46,-1566.25,-4602.5,848.75,-139.84,-253.84,-250.8
1959.1824,832.833,-157.502,600.85,-1470.0,-4742.5,612.5,-139.84,-252.32,-270.56
1959.2324,833.138,-157.807,603.778,-1575.0,-4655.0,463.75,-150.48,-259.92,-258.4
1959.2824,832.528,-156.343,598.715,-1505.0,-4733.75,367.5,-161.12,-266.0,-282.72
1959.3324,833.382,-157.075,598.593,-1697.5,-4567.5,743.75,-150.48,-253.84,-275.12
1959.3824,831.125,-156.892,600.118,-1540.0,-4838.75,665.0,-144.4,-261.44,-273.6
1959.4324,833.504,-158.539,602.192,-1522.5,-4602.5,455.0,-132.24,-256.88,-276.64
1959.4824,831.674,-158.234,603.107,-1680.0,-4480.0,437.5,-147.44,-262.96,-262.96
1959.5324,833.748,-159.637,603.412,-1365.0,-4847.5,446.25,-155.04,-258.4,-275.12
1959.5824,832.345,-157.502,600.301,-1636.25,-4698.75,656.25,-156.56,-241.68,-259.92
1959.6324,833.016,-160.125,599.386,-1575.0,-4952.5,612.5,-142.88,-255.36,-264.48
1959.6824,832.955,-156.709,599.935,-1575.0,-4707.5,586.25,-138.32,-255.36,-259.92
1959.7324,832.162,-159.332,599.813,-1513.75,-4812.5,516.25,-142.88,-267.52,-278.16
1959.7824,833.321,-157.746,599.203,-1496.25,-4567.5,560.0,-142.88,-261.44,-273.6
1959.8324,832.162,-157.868,600.179,-1426.25,-4768.75,726.25,-148.96,-246.24,-264.48
1959.8824,833.077,-157.685,599.569,-1417.5,-4698.75,551.25,-144.4,-258.4,-279.68
1959.9324,832.833,-159.332,600.972,-1557.5,-4558.75,315.0,-142.88,-259.92,-273.6
1959.9824,832.467,-160.979,601.643,-1408.75,-4795.0,411.25,-161.12,-255.36,-272.08
1960.0324,831.796,-157.99,603.595,-1680.0,-4515.0,752.5,-168.72,-243.2,-255.36
1960.0824,835.944,-157.99,599.63,-1400.0,-4926.25,726.25,-148.96,-259.92,-267.52
1960.1324,833.809,-157.929,601.399,-1303.75,-5048.75,271.25,-142.88,-276.64,-264.48
1960.1824,832.894,-157.441,601.948,-1741.25,-4261.25,420.0,-164.16,-270.56,-264.48
1960.2324,833.565,-159.759,600.362,-1321.25,-5022.5,253.75,-147.44,-256.88,-270.56
1960.2824,832.406,-157.075,601.704,-1268.75,-5048.75,630.0,-135.28,-253.84,-264.48
1960.3324,835.883,-157.929,599.874,-1575.0,-4558.75,787.5,-135.28,-267.52,-267.52
1960.3824,835.578,-156.465,598.715,-1680.0,-4436.25,402.5,-155.04,-241.68,-278.16
1960.4324,831.064,-160.491,599.63,-1548.75,-4646.25,341.25,-136.8,-256.88,-270.56
1960.4825,832.833,-157.868,600.728,-1653.75,-4515.0,376.25,-153.52,-256.88,-270.56
1960.5324,832.101,-158.6,600.972,-1653.75,-4970.0,796.25,-147.44,-252.32,-262.96
1960.5824,833.931,-155.489,601.277,-1522.5,-4602.5,647.5,-152.0,-262.96,-261.44
1960.6324,833.931,-159.637,600.118,-1627.5,-4628.75,463.75,-159.6,-249.28,-281.2
1960.6824,832.894,-158.844,599.935,-1548.75,-4558.75,446.25,-148.96,-262.96,-278.16
1960.7324,835.334,-157.624,600.972,-1505.0,-4865.0,595.0,-130.72,-258.4,-266.0
1960.7824,832.894,-158.844,602.192,-1566.25,-4663.75,682.5,-158.08,-266.0,-266.0
1960.8324,833.443,-158.539,600.179,-1505.0,-4821.25,691.25,-145.92,-255.36,-273.6
1960.8824,832.467,-157.685,601.277,-1382.5,-4716.25,376.25,-144.4,-262.96,-256.88
1960.9324,830.759,-155.611,602.192,-1680.0,-4891.25,630.0,-142.88,-256.88,-269.04
1960.9824,830.942,-161.284,599.264,-1758.75,-4611.25,638.75,-155.04,-246.24,-281.2
1961.0324,832.467,-157.014,601.338,-1653.75,-4550.0,621.25,-164.16,-264.48,-269.04
1961.0824,833.748,-156.77,602.558,-1496.25,-4707.5,463.75,-153.52,-272.08,-264.48
1961.1324,831.491,-158.234,599.996,-1557.5,-4602.5,603.75,-133.76,-284.24,-255.36
1961.1824,831.735,-158.173,598.288,-1505.0,-4856.25,507.5,-145.92,-262.96,-275.12
1961.2324,834.358,-156.343,602.131,-1321.25,-4620.0,586.25,-144.4,-252.32,-281.2
1961.2824,830.637,-157.441,602.192,-1461.25,-4672.5,542.5,-153.52,-258.4,-276.64
1961.3324,832.04,-159.82,601.948,-1645.0,-4900.0,516.25,-156.56,-249.28,-267.52
1961.3824,835.151,-157.807,598.898,-1548.75,-4768.75,341.25,-153.52,-272.08,-278.16
1961.4324,831.125,-156.953,599.142,-1443.75,-4620.0,507.5,-138.32,-261.44,-261.44
1961.4824,835.456,-156.282,599.813,-1575.0,-4585.0,735.0,-150.48,-266.0,-276.64
1961.5324,831.918,-160.857,601.765,-1645.0,-4637.5,525.0,-144.4,-262.96,-249.28
1961.5824,834.907,-158.905,599.691,-1443.75,-4970.0,376.25,-135.28,-256.88,-276.64
1961.6324,835.517,-158.051,600.545,-1592.5,-4418.75,498.75,-152.0,-266.0,-259.92
1961.6824,833.26,-158.783,600.972,-1557.5,-4611.25,700.0,-158.08,-258.4,-262.96
1961.7324,834.907,-158.112,601.033,-1400.0,-4961.25,647.5,-147.44,-250.8,-256.88
1961.7824,833.626,-157.746,602.314,-1592.5,-4611.25,770.0,-141.36,-243.2,-282.72
1961.8325,832.345,-159.881,602.375,-1715.0,-4576.25,437.5,-135.28,-253.84,-276.64
1961.8824,835.029,-158.417,600.423,-1312.5,-4795.0,262.5,-145.92,-238.64,-272.08
1961.9324,834.114,-159.637,600.606,-1312.5,-4698.75,700.0,-153.52,-262.96,-266.0
1961.9824,835.151,-156.038,600.423,-1548.75,-4786.25,796.25,-144.4,-252.32,-281.2
1962.0324,833.199,-159.759,600.545,-1513.75,-4576.25,621.25,-144.4,-269.04,-273.6
1962.0824,831.796,-156.709,601.338,-1575.0,-4646.25,227.5,-152.0,-258.4,-259.92
1962.1324,834.663,-157.441,597.861,-1557.5,-4471.25,481.25,-155.04,-261.44,-256.88
1962.1824,833.565,-158.417,601.948,-1470.0,-4856.25,796.25,-164.16,-235.6,-276.64
1962.2324,834.663,-159.515,598.776,-1583.75,-4926.25,892.5,-141.36,-252.32,-272.08
1962.2824,832.162,-159.332,603.229,-1461.25,-4856.25,542.5,-138.32,-258.4,-253.84
1962.3324,832.223,-158.661,599.02,-1531.25,-4900.0,428.75,-153.52,-266.0,-264.48
1962.3824,832.833,-157.99,599.813,-1548.75,-4558.75,542.5,-161.12,-244.72,-264.48
1962.4324,831.979,-158.051,600.667,-1426.25,-4856.25,630.0,-156.56,-256.88,-276.64
1962.4824,835.273,-157.868,600.667,-1522.5,-4847.5,656.25,-142.88,-253.84,-269.04
1962.5324,832.223,-159.942,599.813,-1557.5,-4541.25,420.0,-155.04,-247.76,-267.52
1962.5824,832.711,-158.234,600.911,-1653.75,-4401.25,542.5,-152.0,-246.24,-273.6
1962.6324,833.199,-159.271,601.338,-1408.75,-4838.75,586.25,-144.4,-249.28,-281.2
1962.6824,832.406,-157.99,600.606,-1365.0,-4803.75,743.75,-139.84,-255.36,-273.6
1962.7324,832.528,-157.136,599.081,-1610.0,-4698.75,437.5,-155.04,-266.0,-272.08
1962.7824,833.504,-157.502,601.643,-1592.5,-4760.0,402.5,-158.08,-256.88,-267.52
1962.8324,832.223,-158.966,601.643,-1540.0,-4681.25,560.0,-148.96,-249.28,-278.16
1962.8824,834.114,-157.136,601.643,-1610.0,-4628.75,735.0,-148.96,-247.76,-279.68
1962.9324,832.894,-159.759,599.874,-1443.75,-4917.5,805.0,-141.36,-272.08,-272.08
1962.9824,831.613,-159.82,600.85,-1522.5,-4935.0,393.75,-141.36,-267.52,-256.88
1963.0324,832.345,-159.698,602.192,-1566.25,-4550.0,376.25,-158.08,-259.92,-270.56
1963.0824,835.029,-157.197,604.144,-1680.0,-4541.25,402.5,-147.44,-253.84,-278.16
1963.1324,833.321,-159.332,600.667,-1391.25,-4970.0,673.75,-135.28,-250.8,-276.64
1963.1825,833.382,-158.295,600.545,-1583.75,-4567.5,770.0,-147.44,-267.52,-273.6
1963.2324,832.223,-155.855,598.715,-1592.5,-4532.5,402.5,-152.0,-247.76,-267.52
1963.2824,831.125,-155.367,601.338,-1531.25,-4873.75,393.75,-136.8,-256.88,-262.96
1963.3324,835.09,-160.552,601.887,-1601.25,-4882.5,332.5,-145.92,-270.56,-278.16
1963.3824,835.029,-157.807,599.752,-1321.25,-4900.0,691.25,-156.56,-249.28,-264.48
1963.4324,830.027,-157.746,599.691,-1566.25,-4681.25,770.0,-153.52,-255.36,-273.6
1963.4824,832.894,-159.698,600.789,-1548.75,-4760.0,262.5,-158.08,-253.84,-264.48
1963.5324,832.894,-157.197,599.63,-1627.5,-4620.0,516.25,-153.52,-247.76,-270.56
1963.5824,832.284,-159.21,601.948,-1496.25,-4821.25,446.25,-148.96,-267.52,-262.96
1963.6324,830.332,-157.319,600.179,-1461.25,-4926.25,726.25,-152.0,-256.88,-262.96
1963.6824,834.785,-159.21,600.545,-1522.5,-4707.5,595.0,-162.64,-261.44,-264.48
1963.7324,834.602,-157.075,599.508,-1531.25,-4663.75,612.5,-133.76,-250.8,-282.72
1963.7824,834.48,-159.942,602.741,-1522.5,-4716.25,437.5,-142.88,-256.88,-272.08
1963.8324,832.528,-159.942,601.338,-1513.75,-4558.75,665.0,-155.04,-270.56,-275.12
1963.8824,833.504,-159.21,601.399,-1575.0,-4856.25,761.25,-162.64,-250.8,-262.96
1963.9324,834.175,-157.99,600.179,-1566.25,-4690.0,472.5,-156.56,-256.88,-276.64
1963.9824,833.138,-158.539,600.545,-1741.25,-4725.0,490.0,-144.4,-255.36,-253.84
1964.0324,833.443,-157.624,601.155,-1592.5,-4436.25,638.75,-141.36,-246.24,-261.44
1964.0824,832.711,-159.21,597.556,-1321.25,-4830.0,630.0,-141.36,-267.52,-273.6
1964.1324,834.236,-157.441,601.826,-1513.75,-4558.75,568.75,-156.56,-241.68,-247.76
1964.1824,832.833,-159.332,598.898,-1618.75,-4646.25,446.25,-135.28,-259.92,-270.56
1964.2324,833.321,-157.014,600.667,-1478.75,-5092.5,358.75,-141.36,-253.84,-279.68
1964.2824,831.979,-158.966,600.423,-1461.25,-4777.5,691.25,-147.44,-266.0,-264.48
1964.3324,830.454,-158.112,601.46,-1513.75,-4838.75,743.75,-155.04,-266.0,-278.16
1964.3824,833.626,-159.21,599.813,-1653.75,-4786.25,630.0,-153.52,-250.8,-270.56
1964.4324,832.894,-158.478,599.752,-1592.5,-4917.5,376.25,-141.36,-252.32,-261.44
1964.4824,832.467,-160.491,599.752,-1680.0,-4322.5,393.75,-141.36,-261.44,-281.2
1964.5325,832.711,-159.332,600.057,-1487.5,-4768.75,787.5,-142.88,-270.56,-266.0
1964.5824,833.565,-157.38,600.423,-1540.0,-4672.5,796.25,-158.08,-250.8,-267.52
1964.6324,833.626,-159.942,599.508,-1548.75,-4733.75,700.0,-145.92,-244.72,-275.12
1964.6824,833.26,-160.125,599.325,-1645.0,-4383.75,385.0,-141.36,-246.24,-273.6
1964.7324,832.894,-160.979,600.179,-1435.0,-4637.5,350.0,-139.84,-262.96,-264.48
1964.7824,833.199,-158.539,601.338,-1391.25,-4908.75,857.5,-144.4,-261.44,-269.04
1964.8324,833.016,-158.051,600.362,-1513.75,-4812.5,665.0,-150.48,-264.48,-266.0
1964.8824,833.87,-156.282,603.412,-1426.25,-4602.5,638.75,-147.44,-243.2,-247.76
1964.9324,833.748,-160.186,598.105,-1662.5,-4760.0,446.25,-132.24,-275.12,-272.08
1964.9824,833.748,-159.515,599.569,-1435.0,-4515.0,428.75,-136.8,-266.0,-255.36
1965.0324,832.955,-157.624,600.789,-1522.5,-4751.25,682.5,-152.0,-264.48,-261.44
1965.0824,832.711,-157.624,602.314,-1575.0,-4812.5,682.5,-145.92,-255.36,-273.6
1965.1324,835.944,-158.417,602.68,-1443.75,-4812.5,560.0,-147.44,-249.28,-262.96
1965.1824,832.406,-156.953,601.094,-1505.0,-4803.75,332.5,-150.48,-267.52,-275.12
1965.2324,831.796,-160.247,600.85,-1723.75,-4725.0,700.0,-144.4,-262.96,-270.56
1965.2824,834.419,-161.467,598.532,-1408.75,-4821.25,586.25,-130.72,-249.28,-275.12
1965.3324,833.138,-158.844,599.569,-1496.25,-4725.0,630.0,-152.0,-246.24,-273.6
1965.3824,833.26,-160.918,598.654,-1706.25,-4585.0,481.25,-135.28,-256.88,-270.56
1965.4324,831.735,-157.929,601.033,-1583.75,-4392.5,498.75,-144.4,-269.04,-252.32
1965.4824,833.992,-158.6,599.874,-1470.0,-4847.5,717.5,-167.2,-253.84,-282.72
1965.5324,833.321,-158.478,597.373,-1478.75,-4830.0,743.75,-142.88,-249.28,-264.48
1965.5824,832.772,-158.966,598.471,-1470.0,-4681.25,411.25,-148.96,-256.88,-267.52
1965.6324,829.966,-158.417,601.826,-1470.0,-4585.0,411.25,-145.92,-267.52,-272.08
1965.6824,834.48,-157.441,603.351,-1452.5,-4628.75,691.25,-161.12,-252.32,-273.6
1965.7324,834.663,-156.343,598.471,-1435.0,-4637.5,743.75,-145.92,-267.52,-269.04
1965.7824,831.369,-158.051,601.887,-1505.0,-4873.75,822.5,-141.36,-256.88,-261.44
1965.8324,832.711,-157.014,598.593,-1548.75,-4480.0,472.5,-145.92,-261.44,-273.6
1965.8825,832.162,-158.905,600.362,-1478.75,-4567.5,358.75,-148.96,-258.4,-270.56
1965.9324,831.247,-159.393,600.667,-1583.75,-4690.0,420.0,-168.72,-250.8,-266.0
1965.9824,834.48,-158.356,600.24,-1426.25,-4830.0,700.0,-155.04,-256.88,-285.76
1966.0324,833.931,-158.722,601.765,-1557.5,-4847.5,831.25,-141.36,-243.2,-272.08
1966.0824,836.005,-158.295,601.094,-1575.0,-4742.5,446.25,-144.4,-252.32,-272.08
1966.1324,832.955,-156.648,599.325,-1513.75,-4786.25,376.25,-153.52,-264.48,-270.56
1966.1824,833.077,-158.722,602.07,-1513.75,-4795.0,490.0,-147.44,-255.36,-262.96
1966.2324,834.114,-161.894,598.715,-1365.0,-4716.25,708.75,-159.6,-262.96,-264.48
1966.2824,833.504,-156.404,599.508,-1408.75,-4838.75,743.75,-135.28,-253.84,-278.16
1966.3324,832.711,-156.465,599.569,-1540.0,-4943.75,367.5,-133.76,-238.64,-267.52
1966.3824,833.626,-155.977,600.179,-1461.25,-4611.25,463.75,-153.52,-264.48,-253.84
1966.4324,833.199,-157.197,601.765,-1566.25,-4550.0,586.25,-156.56,-246.24,-281.2
1966.4824,832.528,-158.356,599.691,-1548.75,-4707.5,691.25,-150.48,-259.92,-272.08
1966.5324,832.467,-158.112,600.972,-1452.5,-4795.0,673.75,-148.96,-255.36,-266.0
1966.5824,833.687,-158.722,599.752,-1487.5,-4777.5,420.0,-148.96,-270.56,-269.04
1966.6324,834.053,-161.101,599.752,-1347.5,-4698.75,542.5,-155.04,-261.44,-275.12
1966.6824,831.125,-157.99,599.508,-1618.75,-4681.25,568.75,-147.44,-256.88,-269.04
1966.7324,833.382,-155.916,600.24,-1548.75,-4952.5,673.75,-148.96,-258.4,-284.24
1966.7824,835.578,-157.258,598.471,-1540.0,-4637.5,621.25,-150.48,-247.76,-270.56
1966.8324,830.637,-158.173,602.497,-1592.5,-4672.5,420.0,-155.04,-272.08,-267.52
1966.8824,834.175,-157.929,601.948,-1461.25,-4672.5,595.0,-153.52,-246.24,-287.28
1966.9324,835.151,-157.807,602.253,-1470.0,-4742.5,778.75,-150.48,-272.08,-276.64
1966.9824,833.87,-158.295,601.094,-1513.75,-5101.25,446.25,-153.52,-252.32,-261.44
1967.0324,833.504,-158.234,599.447,-1575.0,-4768.75,516.25,-145.92,-244.72,-252.32
1967.0824,831.552,-157.441,601.582,-1583.75,-4628.75,455.0,-155.04,-272.08,-266.0
1967.1324,833.138,-159.149,598.837,-1627.5,-4733.75,805.0,-159.6,-252.32,-278.16
1967.1824,832.955,-159.637,603.717,-1312.5,-4768.75,647.5,-165.68,-266.0,-273.6
1967.2324,831.918,-157.99,600.301,-1636.25,-4733.75,516.25,-136.8,-247.76,-259.92
1967.2824,832.101,-160.857,598.471,-1566.25,-4690.0,358.75,-162.64,-262.96,-272.08
1967.3324,832.162,-158.234,599.447,-1540.0,-4856.25,367.5,-150.48,-252.32,-261.44
1967.3824,833.199,-160.247,599.325,-1443.75,-4978.75,805.0,-153.52,-249.28,-281.2
1967.4324,833.565,-158.051,602.924,-1443.75,-4891.25,717.5,-156.56,-244.72,-269.04
1967.4824,830.088,-159.21,602.07,-1575.0,-4760.0,866.25,-156.56,-266.0,-261.44
1967.5324,832.894,-158.905,600.24,-1592.5,-4453.75,218.75,-164.16,-259.92,-273.6
1967.5824,832.65,-157.38,596.946,-1583.75,-4891.25,402.5,-135.28,-258.4,-261.44
1967.6324,833.138,-157.075,600.301,-1426.25,-4882.5,603.75,-139.84,-258.4,-269.04
1967.6824,832.711,-158.417,600.667,-1645.0,-4865.0,875.0,-148.96,-266.0,-269.04
1967.7324,830.881,-160.613,599.752,-1557.5,-4943.75,595.0,-165.68,-264.48,-264.48
1967.7824,833.565,-158.905,599.813,-1426.25,-4970.0,350.0,-150.48,-255.36,-259.92
1967.8324,833.382,-158.722,601.582,-1680.0,-4462.5,490.0,-158.08,-252.32,-262.96
1967.8824,833.26,-160.125,601.643,-1540.0,-4838.75,656.25,-147.44,-247.76,-273.6
1967.9324,832.833,-158.051,601.338,-1548.75,-4760.0,708.75,-150.48,-262.96,-270.56
1967.9824,834.114,-158.539,601.948,-1400.0,-4952.5,481.25,-144.4,-267.52,-284.24
1968.0324,832.772,-156.892,601.399,-1505.0,-4812.5,420.0,-136.8,-259.92,-253.84
1968.0824,834.114,-159.332,600.911,-1618.75,-4593.75,595.0,-133.76,-267.52,-264.48
1968.1324,833.992,-159.637,600.179,-1522.5,-4812.5,743.75,-150.48,-275.12,-253.84
1968.1824,833.687,-155.855,601.582,-1531.25,-4803.75,463.75,-145.92,-259.92,-266.0
1968.2324,833.626,-159.454,600.118,-1653.75,-4672.5,385.0,-141.36,-255.36,-279.68
1968.2824,831.796,-159.088,603.046,-1470.0,-4681.25,525.0,-144.4,-253.84,-272.08
1968.3324,835.7,-157.38,599.386,-1443.75,-4803.75,752.5,-156.56,-261.44,-258.4
1968.3824,832.894,-160.491,602.009,-1540.0,-4760.0,735.0,-170.24,-246.24,-250.8
1968.4324,832.833,-160.552,602.436,-1680.0,-4847.5,603.75,-158.08,-256.88,-279.68
1968.4826,831.674,-159.149,600.118,-1531.25,-4217.5,288.75,-145.92,-237.12,-276.64
1968.5324,833.504,-155.489,599.752,-1618.75,-4803.75,682.5,-153.52,-246.24,-276.64
1968.5824,832.04,-160.247,601.155,-1531.25,-4655.0,787.5,-144.4,-266.0,-267.52
1968.6324,832.833,-157.868,601.277,-1522.5,-4970.0,813.75,-148.96,-264.48,-267.52
1968.6824,834.602,-159.393,602.131,-1443.75,-4873.75,385.0,-136.8,-243.2,-279.68
1968.7324,833.504,-159.82,602.619,-1627.5,-4558.75,262.5,-139.84,-275.12,-262.96
1968.7824,837.53,-159.21,599.447,-1557.5,-4725.0,428.75,-144.4,-256.88,-279.68
1968.8324,833.87,-156.831,602.985,-1417.5,-4926.25,700.0,-165.68,-255.36,-259.92
1968.8824,833.26,-158.722,601.582,-1618.75,-4777.5,787.5,-139.84,-255.36,-272.08
1968.9324,834.785,-162.382,599.752,-1636.25,-4672.5,271.25,-156.56,-253.84,-281.2
1968.9824,834.724,-158.6,602.253,-1540.0,-4515.0,402.5,-148.96,-259.92,-264.48
1969.0324,835.273,-158.356,601.643,-1583.75,-4698.75,525.0,-167.2,-252.32,-267.52
1969.0824,834.663,-159.271,599.508,-1443.75,-4917.5,787.5,-159.6,-259.92,-261.44
1969.1324,831.308,-158.417,601.948,-1575.0,-4786.25,612.5,-144.4,-240.16,-270.56
1969.1824,833.992,-157.685,601.155,-1680.0,-4838.75,393.75,-132.24,-264.48,-258.4
1969.2324,833.138,-161.162,600.24,-1610.0,-4427.5,437.5,-147.44,-249.28,-250.8
1969.2824,833.565,-158.6,602.07,-1531.25,-4812.5,595.0,-155.04,-258.4,-264.48
1969.3324,833.321,-157.99,598.837,-1347.5,-4926.25,656.25,-138.32,-261.44,-261.44
1969.3824,832.711,-159.759,598.105,-1566.25,-4760.0,516.25,-142.88,-253.84,-264.48
1969.4324,833.809,-157.807,602.619,-1478.75,-4655.0,533.75,-139.84,-253.84,-261.44
1969.4824,832.162,-158.417,599.508,-1487.5,-4698.75,463.75,-153.52,-264.48,-267.52
1969.5324,832.284,-158.234,602.558,-1715.0,-4795.0,621.25,-156.56,-255.36,-267.52
1969.5824,831.796,-158.051,599.996,-1636.25,-4611.25,708.75,-141.36,-241.68,-267.52
1969.6324,834.419,-160.125,600.606,-1487.5,-4751.25,411.25,-150.48,-258.4,-267.52
1969.6824,834.358,-158.6,598.898,-1513.75,-4541.25,393.75,-136.8,-262.96,-270.56
1969.7324,833.321,-158.295,604.632,-1531.25,-4733.75,542.5,-150.48,-250.8,-261.44
1969.7824,830.759,-159.027,601.643,-1435.0,-4926.25,726.25,-162.64,-255.36,-284.24
1969.8324,831.674,-158.051,600.606,-1443.75,-4856.25,525.0,-153.52,-255.36,-279.68
1969.8824,832.528,-159.271,600.911,-1583.75,-4777.5,498.75,-144.4,-253.84,-264.48
1969.9324,834.419,-158.112,597.678,-1583.75,-4821.25,358.75,-139.84,-259.92,-276.64
1969.9824,832.955,-158.478,600.118,-1671.25,-4847.5,717.5,-144.4,-259.92,-264.48
1970.0324,833.504,-158.295,602.558,-1277.5,-4690.0,673.75,-164.16,-264.48,-275.12
1970.0824,833.626,-157.685,599.508,-1470.0,-4795.0,367.5,-155.04,-259.92,-273.6
1970.1324,831.979,-158.295,599.813,-1487.5,-4716.25,323.75,-142.88,-253.84,-259.92
1970.1824,832.406,-158.478,601.155,-1627.5,-4777.5,385.0,-135.28,-259.92,-262.96
1970.2324,833.077,-161.65,601.155,-1548.75,-4821.25,840.0,-162.64,-252.32,-259.92
1970.2824,833.626,-158.6,603.107,-1531.25,-4725.0,656.25,-155.04,-255.36,-266.0
1970.3324,834.358,-159.759,600.423,-1531.25,-4943.75,691.25,-155.04,-249.28,-264.48
1970.3824,834.053,-159.82,602.009,-1618.75,-4401.25,376.25,-138.32,-272.08,-270.56
1970.4324,833.504,-159.027,598.288,-1627.5,-4532.5,420.0,-145.92,-269.04,-267.52
1970.4824,834.358,-156.892,599.325,-1435.0,-4847.5,761.25,-147.44,-259.92,-269.04
1970.5324,835.334,-158.356,602.07,-1575.0,-4637.5,770.0,-145.92,-258.4,-278.16
1970.5824,832.955,-158.905,601.826,-1566.25,-4917.5,542.5,-139.84,-258.4,-278.16
1970.6324,834.419,-157.746,601.643,-1540.0,-4742.5,341.25,-155.04,-247.76,-267.52
1970.6824,831.796,-158.173,601.46,-1645.0,-4488.75,455.0,-155.04,-259.92,-269.04
1970.7324,833.26,-159.21,601.887,-1443.75,-4952.5,787.5,-152.0,-255.36,-258.4
1970.7824,836.005,-158.478,602.436,-1636.25,-4786.25,743.75,-148.96,-246.24,-275.12
1970.8324,833.626,-160.003,599.081,-1548.75,-4751.25,446.25,-124.64,-241.68,-279.68
1970.8824,833.992,-158.356,597.617,-1557.5,-4742.5,315.0,-147.44,-267.52,-262.96
1970.9324,832.101,-156.404,601.155,-1697.5,-4865.0,682.5,-155.04,-241.68,-258.4
1970.9824,832.101,-158.417,602.863,-1461.25,-4900.0,708.75,-153.52,-247.76,-267.52
1971.0324,833.321,-158.539,600.911,-1548.75,-4838.75,560.0,-145.92,-253.84,-275.12
1971.0824,831.979,-159.515,600.789,-1671.25,-4917.5,446.25,-152.0,-270.56,-250.8
1971.1324,833.992,-160.613,602.497,-1513.75,-4471.25,647.5,-142.88,-241.68,-258.4
1971.1826,830.698,-158.905,601.582,-1522.5,-4716.25,770.0,-142.88,-262.96,-264.48
1971.2324,833.138,-157.685,600.545,-1426.25,-4628.75,507.5,-147.44,-259.92,-278.16
1971.2824,832.162,-158.6,603.351,-1575.0,-4803.75,402.5,-145.92,-255.36,-270.56
1971.3324,833.748,-157.38,600.911,-1566.25,-4830.0,385.0,-167.2,-267.52,-262.96
1971.3824,832.162,-156.038,598.349,-1601.25,-4970.0,840.0,-144.4,-262.96,-278.16
1971.4324,836.188,-159.21,599.935,-1522.5,-4803.75,752.5,-139.84,-259.92,-267.52
1971.4824,833.809,-159.027,600.789,-1461.25,-4891.25,735.0,-150.48,-255.36,-273.6
1971.5324,833.016,-158.722,597.312,-1540.0,-4978.75,560.0,-159.6,-253.84,-272.08
1971.5824,835.273,-159.21,602.985,-1601.25,-4646.25,402.5,-150.48,-262.96,-275.12
1971.6324,833.931,-158.539,599.691,-1540.0,-4550.0,210.0,-153.52,-264.48,-281.2
1971.6824,834.236,-156.953,600.24,-1540.0,-4768.75,787.5,-130.72,-253.84,-272.08
1971.7324,832.04,-159.027,603.107,-1601.25,-4698.75,743.75,-130.72,-266.0,-264.48
1971.7824,833.87,-156.587,600.301,-1697.5,-4768.75,446.25,-159.6,-250.8,-267.52
1971.8324,833.931,-157.868,599.996,-1443.75,-4830.0,210.0,-150.48,-272.08,-272.08
1971.8824,834.175,-156.587,601.277,-1610.0,-4795.0,568.75,-150.48,-262.96,-264.48
1971.9324,834.175,-160.247,598.776,-1443.75,-4873.75,665.0,-147.44,-261.44,-267.52
1971.9824,833.443,-157.197,599.081,-1557.5,-4768.75,647.5,-142.88,-264.48,-270.56
1972.0324,832.223,-159.454,602.741,-1723.75,-4663.75,350.0,-150.48,-261.44,-275.12
1972.0824,833.382,-155.55,600.972,-1618.75,-4628.75,463.75,-130.72,-255.36,-270.56
1972.1324,831.857,-159.942,600.118,-1443.75,-4891.25,568.75,-147.44,-256.88,-266.0
1972.1824,832.955,-155.794,601.582,-1426.25,-4961.25,603.75,-155.04,-249.28,-276.64
1972.2324,830.942,-159.088,600.728,-1811.25,-4541.25,621.25,-144.4,-261.44,-272.08
1972.2824,835.578,-160.979,602.741,-1382.5,-4821.25,297.5,-162.64,-261.44,-270.56
1972.3324,833.199,-157.38,602.436,-1522.5,-4803.75,560.0,-139.84,-253.84,-276.64
1972.3824,832.589,-159.881,600.484,-1531.25,-4628.75,621.25,-141.36,-267.52,-256.88
1972.4324,831.796,-156.221,599.691,-1802.5,-4760.0,787.5,-141.36,-275.12,-255.36
1972.4824,833.748,-157.807,600.728,-1382.5,-4725.0,367.5,-159.6,-258.4,-276.64
1972.5326,832.467,-157.807,603.046,-1627.5,-4523.75,385.0,-135.28,-261.44,-266.0
1972.5824,834.114,-156.282,602.314,-1522.5,-4786.25,665.0,-139.84,-266.0,-249.28
1972.6324,833.565,-158.661,601.399,-1610.0,-4698.75,743.75,-148.96,-256.88,-270.56
1972.6824,833.87,-159.027,602.009,-1618.75,-4628.75,437.5,-145.92,-261.44,-261.44
1972.7324,833.504,-156.831,600.85,-1566.25,-4760.0,472.5,-161.12,-237.12,-249.28
1972.7824,832.711,-159.454,598.166,-1531.25,-4611.25,341.25,-158.08,-249.28,-275.12
1972.8324,833.626,-158.722,599.874,-1522.5,-4838.75,673.75,-150.48,-247.76,-266.0
1972.8824,832.894,-159.149,601.582,-1470.0,-4847.5,813.75,-155.04,-267.52,-264.48
1972.9324,831.674,-156.526,601.399,-1557.5,-4480.0,420.0,-152.0,-264.48,-267.52
1972.9824,832.284,-159.149,600.118,-1653.75,-4742.5,367.5,-145.92,-262.96,-264.48
1973.0324,831.186,-157.38,597.922,-1522.5,-4707.5,411.25,-152.0,-253.84,-259.92
1973.0824,832.65,-158.051,602.07,-1557.5,-4786.25,770.0,-142.88,-244.72,-267.52
1973.1324,831.979,-159.515,602.436,-1435.0,-5005.0,831.25,-141.36,-253.84,-270.56
1973.1824,834.724,-160.491,600.911,-1417.5,-4812.5,621.25,-148.96,-259.92,-270.56
1973.2324,836.737,-157.563,599.996,-1566.25,-4646.25,350.0,-144.4,-255.36,-278.16
1973.2824,834.846,-160.674,599.447,-1697.5,-4532.5,490.0,-156.56,-262.96,-275.12
1973.3324,831.979,-158.966,601.887,-1461.25,-4847.5,787.5,-148.96,-258.4,-258.4
1973.3824,831.369,-160.43,605.242,-1417.5,-4751.25,612.5,-152.0,-264.48,-256.88
1973.4324,835.456,-155.733,600.118,-1443.75,-4996.25,568.75,-145.92,-250.8,-273.6
1973.4824,835.212,-159.698,597.922,-1610.0,-4873.75,507.5,-144.4,-275.12,-276.64
1973.5324,834.419,-160.674,603.839,-1723.75,-4287.5,595.0,-153.52,-252.32,-261.44
1973.5824,831.125,-161.345,604.205,-1487.5,-4698.75,665.0,-153.52,-252.32,-276.64
1973.6324,834.663,-155.855,600.545,-1487.5,-4830.0,630.0,-152.0,-250.8,-272.08
1973.6824,834.053,-161.04,597.617,-1697.5,-4453.75,673.75,-168.72,-256.88,-272.08
1973.7324,832.406,-159.698,604.327,-1461.25,-4550.0,420.0,-156.56,-243.2,-266.0
1973.7824,831.064,-158.661,601.46,-1505.0,-4655.0,516.25,-155.04,-238.64,-272.08
1973.8324,833.687,-157.136,602.436,-1627.5,-4698.75,840.0,-145.92,-253.84,-256.88
1973.8824,833.199,-158.783,599.386,-1557.5,-4655.0,533.75,-142.88,-252.32,-269.04
1973.9324,836.005,-157.38,600.667,-1583.75,-4690.0,288.75,-144.4,-252.32,-273.6
1973.9825,835.517,-155.306,599.996,-1478.75,-4742.5,691.25,-155.04,-246.24,-276.64
1974.0324,833.138,-161.467,601.155,-1513.75,-4821.25,577.5,-152.0,-253.84,-272.08
1974.0824,831.43,-157.807,598.227,-1592.5,-4628.75,735.0,-141.36,-247.76,-275.12
1974.1324,833.565,-156.465,601.216,-1767.5,-4515.0,568.75,-159.6,-246.24,-264.48
1974.1824,832.345,-161.162,600.789,-1522.5,-4777.5,376.25,-142.88,-252.32,-278.16
1974.2324,834.053,-160.674,599.63,-1260.0,-4681.25,507.5,-155.04,-259.92,-255.36
1974.2824,832.528,-157.929,601.887,-1505.0,-4567.5,761.25,-159.6,-264.48,-264.48
1974.3324,833.077,-157.99,601.46,-1443.75,-4882.5,883.75,-136.8,-261.44,-266.0
1974.3824,835.029,-158.234,599.02,-1557.5,-4655.0,446.25,-145.92,-250.8,-276.64
1974.4324,831.979,-160.674,601.094,-1575.0,-4471.25,262.5,-142.88,-253.84,-267.52
1974.4824,832.406,-158.539,600.667,-1540.0,-4690.0,385.0,-152.0,-253.84,-269.04
1974.5324,835.639,-161.467,600.606,-1575.0,-4786.25,761.25,-135.28,-253.84,-278.16
1974.5824,832.284,-155.855,602.253,-1408.75,-4821.25,638.75,-135.28,-255.36,-262.96
1974.6324,833.321,-155.55,601.948,-1645.0,-4777.5,437.5,-135.28,-250.8,-267.52
1974.6824,833.504,-162.26,601.216,-1540.0,-4733.75,350.0,-138.32,-270.56,-258.4
1974.7324,832.711,-157.624,600.423,-1610.0,-4576.25,507.5,-144.4,-266.0,-269.04
1974.7824,831.369,-158.905,599.508,-1478.75,-4576.25,717.5,-156.56,-264.48,-262.96
1974.8324,833.748,-157.136,600.423,-1583.75,-4961.25,778.75,-145.92,-252.32,-270.56
1974.8824,834.602,-160.491,601.338,-1671.25,-4873.75,542.5,-142.88,-253.84,-275.12
1974.9324,831.003,-157.929,601.338,-1522.5,-4646.25,437.5,-150.48,-249.28,-247.76
1974.9824,832.101,-160.308,600.728,-1461.25,-4725.0,586.25,-161.12,-258.4,-259.92
1975.0324,832.467,-159.027,600.789,-1408.75,-4970.0,638.75,-144.4,-246.24,-256.88
1975.0824,834.175,-157.929,602.131,-1636.25,-4532.5,638.75,-148.96,-255.36,-272.08
1975.1324,833.992,-159.393,598.044,-1548.75,-4716.25,341.25,-156.56,-261.44,-261.44
1975.1824,829.112,-159.393,602.192,-1566.25,-4742.5,490.0,-144.4,-273.6,-256.88
1975.2324,833.138,-157.685,601.582,-1610.0,-4628.75,630.0,-161.12,-253.84,-258.4
1975.2824,833.565,-157.38,601.765,-1566.25,-4453.75,586.25,-142.88,-256.88,-273.6
1975.3325,834.541,-159.576,598.715,-1566.25,-4620.0,463.75,-142.88,-258.4,-281.2
1975.3824,835.822,-159.576,600.484,-1548.75,-4541.25,271.25,-165.68,-266.0,-256.88
1975.4324,833.992,-155.611,601.582,-1627.5,-4838.75,638.75,-161.12,-255.36,-276.64
1975.4824,833.382,-160.491,602.436,-1452.5,-4593.75,700.0,-141.36,-255.36,-253.84
1975.5324,834.175,-157.746,598.776,-1522.5,-4672.5,560.0,-138.32,-241.68,-270.56
1975.5824,833.809,-159.332,602.131,-1382.5,-4838.75,358.75,-150.48,-267.52,-267.52
1975.6324,835.578,-157.319,602.253,-1601.25,-4611.25,428.75,-162.64,-256.88,-270.56
1975.6824,834.602,-159.149,599.935,-1583.75,-4690.0,796.25,-152.0,-240.16,-272.08
1975.7324,832.65,-158.661,599.325,-1513.75,-4760.0,700.0,-148.96,-247.76,-279.68
1975.7824,835.09,-157.38,598.166,-1557.5,-4663.75,533.75,-129.2,-247.76,-261.44
1975.8324,834.602,-158.905,600.545,-1662.5,-4655.0,323.75,-150.48,-262.96,-278.16
1975.8824,832.955,-157.258,600.118,-1610.0,-4716.25,367.5,-156.56,-246.24,-250.8
1975.9324,831.125,-159.576,599.081,-1505.0,-4725.0,770.0,-168.72,-255.36,-267.52
1975.9824,831.613,-158.966,602.009,-1522.5,-4777.5,726.25,-130.72,-255.36,-275.12
1976.0324,835.822,-159.881,600.85,-1487.5,-4628.75,612.5,-129.2,-262.96,-275.12
1976.0824,834.907,-157.441,597.8,-1566.25,-4742.5,280.0,-153.52,-255.36,-270.56
1976.1324,831.735,-159.637,598.41,-1662.5,-4576.25,428.75,-148.96,-262.96,-262.96
1976.1824,834.48,-160.064,599.325,-1478.75,-4611.25,743.75,-155.04,-241.68,-272.08
1976.2324,832.894,-157.502,603.046,-1487.5,-4663.75,603.75,-133.76,-258.4,-267.52
1976.2824,832.894,-155.855,600.118,-1540.0,-4865.0,638.75,-138.32,-255.36,-272.08
1976.3324,833.504,-158.234,600.423,-1688.75,-4410.0,280.0,-150.48,-249.28,-266.0
1976.3824,831.552,-157.99,600.911,-1487.5,-4803.75,411.25,-156.56,-249.28,-249.28
1976.4324,834.602,-157.075,602.009,-1400.0,-4987.5,770.0,-132.24,-247.76,-275.12
1976.4824,832.04,-157.929,602.558,-1662.5,-4637.5,682.5,-135.28,-262.96,-270.56
1976.5324,833.992,-157.685,599.996,-1487.5,-4795.0,428.75,-144.4,-266.0,-279.68
1976.5824,832.711,-158.478,601.887,-1645.0,-4628.75,498.75,-155.04,-256.88,-252.32
1976.6324,832.284,-158.173,598.837,-1548.75,-4733.75,586.25,-139.84,-241.68,-272.08
1976.6825,833.565,-158.478,601.582,-1391.25,-4917.5,638.75,-161.12,-264.48,-262.96
1976.7324,832.162,-159.515,600.789,-1417.5,-4620.0,402.5,-141.36,-266.0,-269.04
1976.7824,832.833,-159.82,600.85,-1610.0,-4611.25,455.0,-155.04,-266.0,-285.76
1976.8324,832.894,-159.271,599.813,-1478.75,-4751.25,612.5,-161.12,-269.04,-269.04
1976.8824,835.395,-158.539,602.192,-1470.0,-4690.0,761.25,-150.48,-244.72,-272.08
1976.9324,834.419,-159.759,601.704,-1592.5,-4698.75,735.0,-142.88,-258.4,-270.56
1976.9824,834.297,-160.735,599.996,-1618.75,-4585.0,332.5,-129.2,-273.6,-262.96
1977.0324,834.846,-160.247,602.68,-1531.25,-4847.5,262.5,-150.48,-255.36,-267.52
1977.0824,833.809,-157.746,601.704,-1417.5,-4698.75,647.5,-145.92,-250.8,-264.48
1977.1324,832.345,-159.759,601.155,-1758.75,-4663.75,875.0,-152.0,-259.92,-259.92
1977.1824,830.82,-157.441,600.545,-1321.25,-4803.75,708.75,-145.92,-243.2,-275.12
1977.2324,834.175,-159.698,597.8,-1583.75,-4733.75,525.0,-150.48,-256.88,-267.52
1977.2824,833.565,-159.393,599.203,-1610.0,-4532.5,262.5,-148.96,-256.88,-267.52
1977.3324,832.833,-158.112,601.887,-1522.5,-4795.0,472.5,-153.52,-247.76,-270.56
1977.3824,831.735,-158.173,598.288,-1452.5,-5083.75,840.0,-153.52,-259.92,-267.52
1977.4324,832.833,-156.526,599.874,-1505.0,-4742.5,691.25,-167.2,-264.48,-267.52
1977.4824,833.443,-159.515,599.691,-1566.25,-4795.0,376.25,-153.52,-255.36,-270.56
1977.5324,833.077,-158.173,599.081,-1662.5,-4410.0,393.75,-153.52,-261.44,-275.12
1977.5824,832.772,-159.576,601.277,-1610.0,-4655.0,586.25,-136.8,-249.28,-250.8
1977.6324,833.687,-157.563,602.314,-1575.0,-4760.0,638.75,-138.32,-250.8,-272.08
1977.6824,833.687,-157.685,601.216,-1513.75,-4716.25,621.25,-159.6,-261.44,-266.0
1977.7324,832.65,-159.637,601.033,-1575.0,-4576.25,446.25,-156.56,-252.32,-267.52
1977.7824,831.552,-158.844,602.253,-1566.25,-4611.25,595.0,-152.0,-252.32,-269.04
1977.8324,832.589,-158.417,602.619,-1417.5,-4742.5,533.75,-152.0,-258.4,-285.76
1977.8824,833.138,-158.295,600.484,-1365.0,-4847.5,568.75,-147.44,-275.12,-259.92
1977.9324,833.016,-157.746,599.264,-1662.5,-4550.0,560.0,-171.76,-266.0,-287.28
1977.9824,833.138,-158.478,601.277,-1601.25,-4462.5,385.0,-138.32,-253.84,-256.88
1978.0325,831.613,-157.868,600.972,-1513.75,-4786.25,542.5,-150.48,-247.76,-272.08
1978.0824,835.517,-159.149,598.654,-1522.5,-4690.0,708.75,-138.32,-255.36,-276.64
1978.1324,833.626,-158.905,600.728,-1566.25,-4593.75,551.25,-138.32,-259.92,-266.0
1978.1824,833.687,-158.783,596.702,-1566.25,-4672.5,358.75,-155.04,-270.56,-262.96
1978.2324,832.65,-157.075,599.996,-1478.75,-4681.25,271.25,-164.16,-247.76,-285.76
1978.2824,833.626,-157.38,602.131,-1688.75,-4830.0,875.0,-132.24,-243.2,-278.16
1978.3324,836.676,-161.833,599.386,-1251.25,-4436.25,560.0,-148.96,-261.44,-270.56
1978.3824,831.43,-155.306,598.288,-1365.0,-4340.0,332.5,-148.96,-266.0,-267.52
1978.4324,831.674,-162.077,600.24,-1706.25,-4812.5,437.5,-142.88,-252.32,-275.12
1978.4824,833.748,-153.415,602.07,-1417.5,-4690.0,227.5,-153.52,-252.32,-279.68
1978.5324,838.262,-162.016,607.438,-1811.25,-4445.0,962.5,-138.32,-262.96,-273.6
1978.5824,832.528,-157.685,599.447,-1216.25,-4935.0,612.5,-130.72,-259.92,-266.0
1978.6324,831.735,-157.929,601.521,-1802.5,-4821.25,603.75,-161.12,-253.84,-266.0
1978.6824,831.674,-161.406,599.142,-1303.75,-4585.0,210.0,-153.52,-258.4,-279.68
1978.7324,833.809,-159.942,600.667,-1785.0,-4628.75,455.0,-162.64,-256.88,-258.4
1978.7824,834.236,-160.674,600.057,-1251.25,-4917.5,717.5,-156.56,-255.36,-273.6
1978.8324,832.955,-157.868,599.813,-1636.25,-4838.75,910.0,-152.0,-262.96,-266.0
1978.8824,833.138,-159.759,601.521,-1225.0,-4760.0,490.0,-156.56,-267.52,-267.52
1978.9324,829.478,-157.685,602.375,-1610.0,-4602.5,350.0,-148.96,-264.48,-261.44
1978.9824,831.674,-160.918,599.813,-1592.5,-4611.25,437.5,-152.0,-261.44,-279.68
1979.0324,831.491,-156.099,601.277,-1303.75,-4987.5,603.75,-129.2,-259.92,-272.08
1979.0824,834.663,-160.735,600.118,-1452.5,-4795.0,822.5,-147.44,-261.44,-269.04
1979.1324,830.881,-158.173,603.778,-1618.75,-4663.75,560.0,-150.48,-258.4,-278.16
1979.1824,835.578,-158.661,599.142,-1557.5,-4523.75,411.25,-159.6,-238.64,-266.0
1979.2324,833.016,-158.356,600.423,-1470.0,-4550.0,463.75,-145.92,-250.8,-261.44
1979.2824,833.016,-156.953,601.094,-1540.0,-4786.25,638.75,-145.92,-246.24,-259.92
1979.3324,831.247,-158.356,602.07,-1653.75,-4698.75,700.0,-139.84,-264.48,-262.96
1979.3825,835.639,-161.833,604.388,-1312.5,-5048.75,341.25,-161.12,-267.52,-261.44
1979.4324,837.896,-161.406,610.244,-1426.25,-4506.25,420.0,-161.12,-266.0,-266.0
1979.4824,831.613,-155.977,599.569,-1452.5,-4856.25,735.0,-147.44,-253.84,-273.6
1979.5324,832.406,-159.454,604.571,-1610.0,-4821.25,778.75,-156.56,-256.88,-276.64
1979.5824,830.698,-158.783,599.691,-1610.0,-4943.75,551.25,-144.4,-244.72,-276.64
1979.6324,835.944,-159.698,600.423,-1531.25,-4252.5,297.5,-155.04,-246.24,-281.2
1979.6824,832.955,-154.696,601.277,-1592.5,-4541.25,656.25,-147.44,-266.0,-264.48
1979.7324,835.212,-159.149,601.948,-1417.5,-4838.75,682.5,-148.96,-264.48,-282.72
1979.7824,833.748,-157.624,598.959,-1443.75,-4655.0,787.5,-138.32,-262.96,-278.16
1979.8324,833.077,-157.99,601.033,-1592.5,-4926.25,428.75,-148.96,-256.88,-266.0
1979.8824,831.735,-157.014,600.057,-1636.25,-4585.0,341.25,-145.92,-246.24,-256.88
1979.9324,834.785,-160.613,600.972,-1452.5,-4838.75,673.75,-156.56,-256.88,-281.2
1979.9824,830.454,-157.014,602.07,-1513.75,-4742.5,735.0,-161.12,-249.28,-261.44
1980.0324,832.711,-157.624,601.277,-1636.25,-4515.0,822.5,-161.12,-255.36,-266.0
1980.0824,831.369,-160.125,601.582,-1680.0,-4742.5,411.25,-152.0,-243.2,-273.6
1980.1324,830.82,-160.552,599.874,-1566.25,-4707.5,306.25,-150.48,-259.92,-273.6
1980.1824,831.918,-158.173,599.874,-1610.0,-4453.75,393.75,-156.56,-264.48,-272.08
1980.2324,833.016,-157.136,600.179,-1470.0,-4690.0,840.0,-145.92,-266.0,-276.64
1980.2824,834.419,-156.77,600.789,-1408.75,-4795.0,726.25,-144.4,-262.96,-261.44
1980.3324,835.09,-158.051,598.105,-1583.75,-4926.25,323.75,-145.92,-253.84,-270.56
1980.3824,834.602,-157.624,599.874,-1610.0,-4602.5,420.0,-159.6,-270.56,-278.16
1980.4324,833.016,-159.942,600.545,-1417.5,-4707.5,411.25,-144.4,-247.76,-267.52
1980.4824,832.528,-157.99,602.619,-1583.75,-4742.5,822.5,-147.44,-256.88,-276.64
1980.5324,834.724,-160.613,597.922,-1470.0,-4620.0,560.0,-147.44,-258.4,-262.96
1980.5824,832.772,-157.624,601.033,-1540.0,-4375.0,428.75,-138.32,-267.52,-259.92
1980.6324,834.541,-159.149,600.545,-1522.5,-4637.5,455.0,-155.04,-261.44,-262.96
1980.6824,837.957,-160.247,607.011,-1592.5,-4366.25,551.25,-155.04,-253.84,-261.44
1980.7326,831.674,-154.513,605.547,-1531.25,-4558.75,735.0,-144.4,-249.28,-253.84
1980.7824,835.395,-163.602,597.739,-1461.25,-4821.25,551.25,-147.44,-252.32,-256.88
1980.8324,834.968,-160.003,601.338,-1268.75,-4698.75,315.0,-144.4,-269.04,-272.08
1980.8824,832.162,-156.77,602.131,-1697.5,-4567.5,682.5,-153.52,-253.84,-267.52
1980.9324,831.735,-158.173,598.715,-1478.75,-5013.75,743.75,-168.72,-258.4,-270.56
1980.9824,835.151,-158.966,600.789,-1470.0,-4777.5,560.0,-150.48,-250.8,-275.12
1981.0324,832.406,-157.014,599.447,-1452.5,-4637.5,472.5,-139.84,-266.0,-270.56
1981.0824,833.931,-161.223,601.155,-1592.5,-4926.25,446.25,-153.52,-266.0,-269.04
1981.1324,833.138,-159.82,600.057,-1470.0,-4908.75,586.25,-156.56,-261.44,-267.52
1981.1824,834.907,-158.905,601.887,-1715.0,-4541.25,761.25,-152.0,-258.4,-276.64
1981.2324,833.931,-157.624,600.423,-1513.75,-4558.75,472.5,-135.28,-250.8,-266.0
1981.2824,834.358,-162.443,600.606,-1706.25,-4550.0,507.5,-133.76,-255.36,-269.04
1981.3324,834.846,-157.563,601.338,-1505.0,-4663.75,262.5,-159.6,-253.84,-281.2
1981.3824,833.87,-157.746,602.619,-1540.0,-4760.0,805.0,-141.36,-261.44,-253.84
1981.4324,833.016,-159.271,599.447,-1408.75,-4803.75,630.0,-152.0,-267.52,-278.16
1981.4824,832.345,-157.075,600.362,-1540.0,-4768.75,516.25,-139.84,-261.44,-276.64
1981.5324,834.48,-158.539,601.948,-1496.25,-4558.75,271.25,-155.04,-258.4,-272.08
1981.5824,834.602,-156.038,602.985,-1776.25,-4716.25,533.75,-139.84,-269.04,-264.48
1981.6324,834.358,-161.345,600.911,-1470.0,-4646.25,656.25,-135.28,-269.04,-266.0
1981.6824,833.87,-153.72,601.338,-1557.5,-4812.5,673.75,-152.0,-253.84,-252.32
1981.7324,833.565,-158.417,598.776,-1391.25,-4821.25,700.0,-139.84,-261.44,-266.0
1981.7824,833.992,-160.43,600.362,-1575.0,-4926.25,341.25,-152.0,-269.04,-262.96
1981.8324,835.7,-158.783,600.789,-1566.25,-4541.25,341.25,-161.12,-266.0,-258.4
1981.8824,831.979,-157.258,601.826,-1618.75,-4900.0,813.75,-152.0,-256.88,-270.56
1981.9324,834.968,-161.101,598.227,-1557.5,-4847.5,840.0,-139.84,-244.72,-262.96
1981.9824,831.43,-158.6,603.839,-1522.5,-4681.25,621.25,-156.56,-255.36,-270.56
1982.0324,833.26,-158.539,602.436,-1618.75,-4611.25,402.5,-147.44,-250.8,-275.12
1982.0824,831.43,-158.844,599.508,-1496.25,-4943.75,542.5,-144.4,-262.96,-270.56
1982.1324,832.833,-160.674,597.251,-1461.25,-4961.25,743.75,-153.52,-259.92,-267.52
1982.1824,831.918,-157.502,603.29,-1513.75,-4453.75,586.25,-150.48,-237.12,-276.64
1982.2324,833.504,-160.308,601.887,-1776.25,-4812.5,656.25,-136.8,-266.0,-269.04
1982.2824,833.687,-161.04,602.68,-1540.0,-4628.75,411.25,-147.44,-267.52,-267.52
1982.3324,835.578,-158.112,602.253,-1583.75,-4637.5,726.25,-153.52,-252.32,-266.0
1982.3824,833.199,-155.672,600.728,-1505.0,-4497.5,691.25,-142.88,-267.52,-272.08
1982.4324,833.687,-157.38,600.484,-1601.25,-4768.75,560.0,-135.28,-270.56,-253.84
