TimeStamp,ax,ay,az,gx,gy,gz,mx,my,mz
3769.9152,304.146,-206.912,966.423,-1111.25,-4646.25,726.25,-79.04,10.64,-269.04
3769.9652,298.656,-190.93,967.46,-306.25,-2633.75,848.75,-100.32,25.84,-252.32
3770.0152,279.929,-197.64,969.107,-1163.75,-3018.75,1478.75,-79.04,16.72,-249.28
3770.0652,295.179,-214.049,966.362,700.0,-4917.5,2170.0,-86.64,18.24,-256.88
3770.1152,292.861,-190.625,973.377,-1023.75,-3850.0,2922.5,-95.76,16.72,-246.24
3770.1652,292.373,-204.777,971.547,1662.5,-5232.5,2423.75,-91.2,12.16,-247.76
3770.2152,305.61,-169.763,966.24,-3307.5,-4873.75,-323.75,-92.72,24.32,-247.76
3770.2652,288.957,-216.062,967.765,-3473.75,-4086.25,-988.75,-80.56,7.6,-270.56
3770.3152,302.072,-179.889,962.275,1400.0,-4410.0,-805.0,-94.24,3.04,-279.68
3770.3652,291.397,-186.294,969.473,840.0,-1513.75,262.5,-91.2,4.56,-261.44
3770.4152,283.833,-170.8,977.159,-472.5,-2327.5,-175.0,-117.04,9.12,-252.32
3770.4652,275.476,-172.386,978.013,-1986.25,-3036.25,-490.0,-92.72,15.2,-261.44
3770.5152,276.635,-186.111,981.795,-1872.5,-3858.75,183.75,-100.32,13.68,-256.88
3770.5652,272.304,-183.976,976.305,-586.25,-5407.5,2721.25,-104.88,7.6,-264.48
3770.6152,301.462,-171.959,970.205,-2843.75,-5757.5,1233.75,-91.2,31.92,-261.44
3770.6652,298.229,-198.433,964.715,-4261.25,-5162.5,3080.0,-91.2,3.04,-252.32
3770.7152,281.637,-188.978,977.037,1268.75,-3360.0,2975.0,-79.04,22.8,-253.84
3770.7652,270.901,-188.551,974.048,-1837.5,-4803.75,2336.25,-80.56,6.08,-272.08
3770.8153,287.92,-191.418,969.717,-2222.5,-4042.5,1023.75,-94.24,22.8,-273.6
3770.8652,273.951,-202.459,974.414,-603.75,-3578.75,2432.5,-86.64,22.8,-269.04
3770.9152,283.406,-184.586,970.693,-1627.5,-4838.75,1758.75,-74.48,15.2,-266.0
3770.9652,281.637,-196.542,974.658,-1268.75,-4523.75,551.25,-71.44,22.8,-256.88
3771.0152,279.319,-201.788,973.865,-1295.0,-3876.25,1575.0,-92.72,22.8,-252.32
3771.0652,276.391,-197.457,973.682,-201.25,-5171.25,1531.25,-94.24,7.6,-267.52
3771.1152,286.7,-191.662,969.717,-1540.0,-3517.5,201.25,-74.48,16.72,-252.32
3771.1652,275.11,-191.784,971.913,-1513.75,-3675.0,-665.0,-80.56,13.68,-266.0
3771.2152,282.308,-193.98,974.17,-1907.5,-3517.5,245.0,-82.08,18.24,-255.36
3771.2652,267.912,-198.067,976.061,-647.5,-3018.75,971.25,-68.4,-3.04,-247.76
3771.3152,265.106,-192.089,980.453,-210.0,-4576.25,376.25,-104.88,13.68,-269.04
3771.3652,280.234,-190.381,974.902,-1242.5,-5862.5,463.75,-77.52,16.72,-262.96
3771.4152,281.698,-189.039,969.778,-2038.75,-4786.25,105.0,-98.8,12.16,-262.96
3771.4652,280.173,-195.139,978.135,1365.0,-3027.5,-1505.0,-94.24,0.0,-270.56
3771.5152,266.936,-181.536,979.721,-840.0,-3736.25,-148.75,-88.16,21.28,-264.48
3771.5652,263.032,-182.756,977.22,-1461.25,-4436.25,857.5,-86.64,15.2,-275.12
3771.6152,275.659,-190.32,976.488,-883.75,-5241.25,1968.75,-80.56,6.08,-273.6
3771.6652,274.439,-179.401,972.828,-1137.5,-4690.0,1225.0,-80.56,18.24,-255.36
3771.7152,274.5,-190.015,975.085,-1951.25,-4803.75,-105.0,-83.6,19.76,-266.0
3771.7652,271.389,-192.638,977.342,-1102.5,-4331.25,971.25,-91.2,10.64,-270.56
3771.8152,265.167,-184.769,978.013,-227.5,-5538.75,472.5,-101.84,10.64,-273.6
3771.8652,276.635,-183.183,975.878,-1233.75,-5250.0,105.0,-101.84,10.64,-256.88
3771.9152,271.877,-178.913,976.122,-1785.0,-5468.75,516.25,-97.28,22.8,-266.0
3771.9652,277.489,-186.355,974.719,-2152.5,-5197.5,927.5,-92.72,15.2,-258.4
3772.0152,283.772,-190.442,973.255,-1400.0,-4847.5,1076.25,-92.72,7.6,-261.44
3772.0653,274.561,-193.187,972.95,-498.75,-4751.25,1802.5,-76.0,16.72,-266.0
3772.1152,285.419,-174.826,969.29,-2310.0,-4593.75,358.75,-92.72,19.76,-258.4
3772.1652,275.781,-200.446,975.024,-3937.5,-4847.5,577.5,-76.0,12.16,-258.4
3772.2152,291.885,-204.594,982.527,271.25,-2520.0,-787.5,-77.52,28.88,-264.48
3772.2652,246.867,-177.876,979.05,-2835.0,-2257.5,-988.75,-76.0,12.16,-259.92
3772.3152,256.383,-189.161,980.453,-2275.0,-5223.75,341.25,-88.16,15.2,-270.56
3772.3652,271.511,-189.466,985.211,113.75,-5328.75,3010.0,-79.04,10.64,-264.48
3772.4152,258.579,-178.73,980.087,-1653.75,-5573.75,1321.25,-83.6,15.2,-264.48
3772.4652,271.877,-189.588,978.318,-2362.5,-5792.5,253.75,-89.68,3.04,-291.84
3772.5152,262.544,-191.723,978.074,-1006.25,-5783.75,1041.25,-74.48,1.52,-269.04
3772.5652,275.11,-184.464,972.157,-1583.75,-6326.25,306.25,-95.76,15.2,-259.92
3772.6152,285.419,-185.257,975.756,-1347.5,-5521.25,-358.75,-91.2,7.6,-258.4
3772.6652,270.169,-181.475,973.133,-1225.0,-4628.75,700.0,-76.0,7.6,-269.04
3772.7152,277.184,-183.793,977.891,-2135.0,-6002.5,1540.0,-89.68,16.72,-264.48
3772.7652,267.241,-190.381,976.122,-1356.25,-4838.75,1321.25,-91.2,10.64,-261.44
3772.8152,275.11,-183.671,975.817,-1907.5,-6265.0,796.25,-89.68,16.72,-258.4
3772.8652,275.598,-186.843,976.061,-2607.5,-5853.75,262.5,-91.2,9.12,-258.4
3772.9152,274.805,-204.594,969.046,-1618.75,-6142.5,1671.25,-88.16,16.72,-276.64
3772.9652,295.911,-202.52,974.475,1925.0,-4270.0,1496.25,-83.6,9.12,-247.76
3773.0152,266.021,-172.447,976.915,-1618.75,-2651.25,761.25,-89.68,10.64,-264.48
3773.0652,264.496,-194.468,981.49,-1540.0,-5722.5,1137.5,-97.28,10.64,-272.08
3773.1152,281.088,-187.575,978.074,-1172.5,-5005.0,507.5,-98.8,6.08,-273.6
3773.1652,269.864,-188.612,973.255,-1295.0,-5582.5,227.5,-100.32,9.12,-262.96
3773.2152,279.563,-185.501,976.915,-1242.5,-4392.5,656.25,-95.76,18.24,-269.04
3773.2652,274.195,-180.316,977.891,-1277.5,-5153.75,805.0,-89.68,28.88,-258.4
3773.3153,280.112,-185.44,970.571,-2870.0,-4488.75,936.25,-86.64,18.24,-275.12
3773.3652,279.38,-195.871,972.645,-1190.0,-3762.5,1216.25,-80.56,22.8,-273.6
3773.4152,267.424,-182.085,974.414,-1680.0,-3508.75,1566.25,-74.48,36.48,-264.48
3773.4652,266.997,-185.623,976.976,-2625.0,-3893.75,17.5,-82.08,9.12,-253.84
3773.5152,267.302,-195.749,980.087,-2660.0,-3928.75,113.75,-95.76,13.68,-258.4
3773.5652,262.971,-189.71,975.329,-1023.75,-5390.0,542.5,-98.8,7.6,-266.0
3773.6152,271.206,-182.573,976.122,-1811.25,-5652.5,402.5,-89.68,-3.04,-264.48
3773.6652,276.208,-186.66,973.255,-2485.0,-5442.5,665.0,-88.16,9.12,-261.44
3773.7152,283.223,-198.921,979.355,472.5,-3543.75,1225.0,-95.76,33.44,-272.08
3773.7652,269.193,-174.338,974.536,-1575.0,-3272.5,1330.0,-82.08,24.32,-267.52
3773.8152,258.213,-194.712,982.039,-1881.25,-4366.25,1417.5,-86.64,12.16,-262.96
3773.8652,271.084,-192.943,977.952,-2065.0,-5302.5,761.25,-97.28,38.0,-266.0
3773.9152,269.681,-190.442,977.098,-1452.5,-4497.5,280.0,-79.04,25.84,-264.48
3773.9652,266.326,-188.063,977.525,-2598.75,-5521.25,-183.75,-79.04,13.68,-269.04
3774.0152,276.147,-187.636,978.562,-3578.75,-5136.25,-743.75,-82.08,27.36,-261.44
3774.0652,257.969,-200.324,976.061,-3622.5,-5722.5,-1916.25,-72.96,9.12,-256.88
3774.1152,279.014,-193.675,969.229,-1802.5,-7945.0,-1041.25,-98.8,-9.12,-275.12
3774.1652,291.214,-195.322,972.767,-1365.0,-5591.25,-857.5,-89.68,3.04,-261.44
3774.2152,275.415,-184.647,969.961,-2397.5,-5040.0,-1207.5,-100.32,21.28,-262.96
3774.2652,274.744,-188.49,969.351,-2152.5,-5836.25,-918.75,-89.68,10.64,-266.0
3774.3152,278.953,-196.298,976.976,-3640.0,-3998.75,-568.75,-74.48,12.16,-259.92
3774.3652,263.276,-199.226,974.536,-6063.75,-3010.0,-1312.5,-72.96,18.24,-281.2
3774.4152,255.956,-216.062,979.111,-3946.25,-5757.5,-4165.0,-79.04,6.08,-262.96
3774.4654,280.661,-220.21,974.17,-2450.0,-7201.25,-2371.25,-79.04,15.2,-258.4
3774.5152,284.992,-204.716,977.83,1277.5,-4488.75,647.5,-104.88,31.92,-252.32
3774.5652,276.574,-183.305,973.072,-883.75,-4725.0,-96.25,-94.24,9.12,-258.4
3774.6152,277.611,-196.725,970.998,-2161.25,-7560.0,883.75,-103.36,15.2,-270.56
3774.6652,294.203,-198.494,967.704,210.0,-6693.75,1828.75,-94.24,21.28,-259.92
3774.7152,284.382,-197.152,972.767,-3237.5,-5565.0,385.0,-92.72,12.16,-259.92
3774.7652,274.439,-194.956,978.318,-1242.5,-6221.25,796.25,-94.24,19.76,-258.4
3774.8152,274.561,-200.873,975.878,-2266.25,-7008.75,1470.0,-72.96,24.32,-270.56
3774.8652,289.018,-205.753,970.876,-1356.25,-8190.0,280.0,-95.76,21.28,-256.88
3774.9152,289.628,-196.908,969.839,-1330.0,-8391.25,-866.25,-83.6,22.8,-244.72
3774.9652,288.042,-195.383,971.791,-2397.5,-8688.75,-726.25,-98.8,19.76,-238.64
3775.0152,298.534,-199.531,968.68,-2380.0,-9563.75,-218.75,-97.28,12.16,-255.36
3775.0652,300.669,-199.531,969.046,-2021.25,-9152.5,210.0,-98.8,18.24,-258.4
3775.1152,300.12,-193.919,968.314,-1741.25,-9520.0,428.75,-92.72,10.64,-255.36
3775.1652,308.233,-199.043,963.19,-2668.75,-10018.75,-280.0,-95.76,9.12,-262.96
3775.2152,322.568,-209.108,968.436,-2537.5,-10027.5,-1382.5,-115.52,18.24,-244.72
3775.2652,314.699,-195.505,960.994,-1207.5,-7813.75,-1338.75,-104.88,13.68,-266.0
3775.3152,305.793,-195.627,960.262,-1741.25,-8898.75,-752.5,-101.84,12.16,-238.64
3775.3652,319.884,-201.361,959.713,-2170.0,-10447.5,-936.25,-95.76,12.16,-241.68
3775.4152,324.398,-196.725,958.188,-2021.25,-10640.0,-708.75,-100.32,6.08,-249.28
3775.4652,325.252,-197.701,957.883,-2966.25,-11042.5,-1058.75,-104.88,19.76,-235.6
3775.5152,333.914,-203.557,961.604,-2852.5,-12293.75,-1680.0,-107.92,24.32,-253.84
3775.5652,335.683,-207.095,953.369,-2511.25,-13282.5,-1443.75,-101.84,12.16,-252.32
3775.6152,349.164,-197.64,950.258,-1548.75,-15365.0,-2703.75,-101.84,7.6,-243.2
3775.6652,362.096,-192.577,947.208,-1723.75,-13168.75,-4252.5,-126.16,16.72,-246.24
3775.7154,364.536,-192.211,948.245,-2747.5,-14586.25,-4908.75,-127.68,4.56,-231.04
3775.7652,370.514,-193.797,940.193,-3106.25,-13256.25,-3473.75,-130.72,15.2,-241.68
3775.8152,389.302,-193.919,939.339,-2721.25,-14148.75,-2082.5,-114.0,9.12,-217.36
3775.8652,392.413,-187.27,934.215,-2913.75,-15863.75,-2126.25,-124.64,10.64,-237.12
3775.9152,404.613,-198.555,923.235,-6133.75,-15251.25,-1592.5,-132.24,15.2,-234.08
3775.9652,441.335,-211.548,933.056,-2756.25,-13247.5,-1347.5,-132.24,15.2,-221.92
3776.0152,422.181,-194.773,919.087,-2983.75,-10815.0,131.25,-114.0,10.64,-226.48
3776.0652,430.538,-198.006,915.061,-3097.5,-9913.75,17.5,-117.04,3.04,-208.24
3776.1152,431.27,-220.027,920.307,-3027.5,-7743.75,1540.0,-138.32,18.24,-217.36
3776.1652,418.704,-208.132,918.294,848.75,-6930.0,3727.5,-129.2,9.12,-220.4
3776.2152,417.728,-195.932,922.259,1522.5,-7332.5,288.75,-135.28,6.08,-217.36
3776.2652,429.257,-192.211,918.355,-2633.75,-7787.5,-787.5,-142.88,6.08,-220.4
3776.3152,449.997,-184.891,922.686,2170.0,-7070.0,-1268.75,-141.36,10.64,-214.32
3776.3652,457.073,-176.778,924.882,-682.5,-5460.0,2231.25,-141.36,1.52,-218.88
3776.4152,426.817,-188.551,923.052,-822.5,-4838.75,3325.0,-139.84,16.72,-221.92
3776.4652,444.995,-189.588,910.12,-2975.0,-8540.0,2003.75,-129.2,-7.6,-211.28
3776.5152,436.272,-205.265,904.508,-3710.0,-6028.75,-647.5,-133.76,1.52,-220.4
3776.5652,444.873,-222.772,911.828,-2511.25,-11611.25,96.25,-144.4,13.68,-217.36
3776.6152,461.343,-209.291,909.632,-2143.75,-9353.75,-1408.75,-138.32,15.2,-205.2
3776.6652,463.234,-229.787,897.31,-700.0,-9686.25,-901.25,-120.08,16.72,-209.76
3776.7152,473.543,-183.61,892.918,700.0,-7446.25,533.75,-132.24,19.76,-224.96
3776.7652,492.026,-185.928,903.898,-1207.5,-4051.25,507.5,-136.8,0.0,-208.24
3776.8152,423.096,-206.851,898.591,-3036.25,-6571.25,822.5,-133.76,1.52,-208.24
3776.8652,465.186,-204.533,909.571,-6107.5,-9415.0,1461.25,-144.4,12.16,-205.2
3776.9152,463.539,-237.29,897.127,-1907.5,-8522.5,1128.75,-152.0,16.72,-209.76
3776.9653,477.996,-208.925,897.676,-3403.75,-8907.5,490.0,-141.36,18.24,-205.2
3777.0152,476.227,-228.689,890.295,1023.75,-9135.0,1977.5,-142.88,7.6,-194.56
3777.0652,483.547,-178.791,890.661,2502.5,-9511.25,647.5,-144.4,1.52,-196.08
3777.1152,500.322,-181.292,890.539,-2835.0,-7262.5,297.5,-142.88,15.2,-196.08
3777.1652,488.671,-201.849,894.26,-883.75,-5285.0,638.75,-150.48,9.12,-203.68
3777.2152,485.133,-192.211,894.077,-1268.75,-5416.25,1111.25,-167.2,22.8,-200.64
3777.2652,486.292,-201.422,894.748,-1960.0,-2905.0,586.25,-144.4,1.52,-205.2
3777.3152,475.983,-204.594,895.419,-166.25,-1461.25,778.75,-139.84,0.0,-199.12
3777.3652,469.517,-194.834,897.371,-1286.25,-1067.5,1216.25,-161.12,19.76,-203.68
3777.4152,464.759,-200.812,905.484,-2423.75,-1330.0,1925.0,-144.4,3.04,-205.2
3777.4652,468.785,-209.352,910.608,1662.5,1828.75,2511.25,-135.28,0.0,-203.68
3777.5152,439.566,-189.161,912.194,516.25,1321.25,1986.25,-135.28,13.68,-217.36
3777.5652,429.867,-198.25,919.087,-2047.5,-2590.0,962.5,-139.84,15.2,-223.44
3777.6152,451.766,-205.021,915.305,-612.5,-3053.75,1645.0,-120.08,24.32,-196.08
3777.6652,441.64,-195.627,911.279,-813.75,-2826.25,1785.0,-132.24,18.24,-217.36
3777.7152,447.923,-202.337,914.939,-1715.0,-3237.5,490.0,-138.32,13.68,-211.28
3777.7652,442.921,-197.945,917.257,-2432.5,-2913.75,726.25,-121.6,6.08,-223.44
3777.8152,433.466,-203.008,915.549,-1855.0,-3823.75,1146.25,-138.32,15.2,-221.92
3777.8652,448.411,-201.971,912.804,-1627.5,-5145.0,498.75,-150.48,0.0,-224.96
3777.9152,444.751,-197.762,913.048,-1828.75,-4051.25,551.25,-138.32,3.04,-209.76
3777.9652,440.542,-203.923,915.793,-2388.75,-5293.75,1295.0,-145.92,7.6,-199.12
3778.0152,443.958,-211.121,912.499,-2248.75,-5145.0,1417.5,-159.6,18.24,-212.8
3778.0652,438.407,-206.485,914.573,-1233.75,-5311.25,962.5,-136.8,30.4,-214.32
3778.1152,445.971,-201.849,908.351,-2878.75,-5792.5,490.0,-126.16,18.24,-217.36
3778.1652,452.376,-218.441,910.913,-2590.0,-5985.0,1338.75,-133.76,13.68,-208.24
3778.2153,450.18,-199.226,912.072,-8.75,-3815.0,306.25,-130.72,22.8,-214.32
3778.2652,439.993,-202.337,911.157,-2983.75,-4698.75,61.25,-132.24,4.56,-211.28
3778.3152,439.566,-212.036,912.56,-2275.0,-5608.75,971.25,-117.04,16.72,-229.52
3778.3652,454.084,-211.548,910.486,-831.25,-5258.75,1470.0,-132.24,16.72,-206.72
3778.4152,447.313,-206.119,907.009,-2266.25,-5188.75,1120.0,-142.88,16.72,-215.84
3778.4652,455.548,-210.389,909.327,-1400.0,-4550.0,288.75,-132.24,18.24,-221.92
3778.5152,450.912,-213.622,906.46,-1610.0,-3858.75,551.25,-147.44,9.12,-211.28
3778.5652,444.568,-212.768,910.12,-857.5,-4217.5,-8.75,-136.8,7.6,-212.8
3778.6152,456.036,-202.276,909.693,-1093.75,-3141.25,-568.75,-161.12,28.88,-209.76
3778.6652,445.666,-200.751,909.144,-1365.0,-2222.5,-358.75,-139.84,4.56,-214.32
3778.7152,443.47,-203.557,912.133,-1872.5,-3062.5,656.25,-138.32,25.84,-193.04
3778.7652,435.784,-209.779,916.525,-866.25,-2563.75,1400.0,-132.24,10.64,-211.28
3778.8152,432.063,-200.568,915.732,-665.0,-3211.25,1120.0,-130.72,28.88,-211.28
3778.8652,433.588,-203.008,913.902,-2546.25,-4025.0,568.75,-120.08,10.64,-212.8
3778.9152,450.058,-224.358,917.257,-227.5,-4033.75,813.75,-132.24,10.64,-223.44
3778.9652,437.187,-188.795,917.013,-157.5,-2598.75,-236.25,-138.32,13.68,-203.68
3779.0152,427.244,-205.204,916.708,-3045.0,-3491.25,26.25,-132.24,19.76,-211.28
3779.0652,427.976,-210.389,920.978,-1828.75,-4663.75,1627.5,-138.32,0.0,-214.32
3779.1152,432.124,-206.729,917.867,-1181.25,-4182.5,2108.75,-138.32,12.16,-220.4
3779.1652,434.93,-212.768,916.098,-1933.75,-5941.25,647.5,-123.12,25.84,-215.84
3779.2152,443.165,-208.986,916.281,-1863.75,-4978.75,105.0,-127.68,16.72,-212.8
3779.2652,430.416,-211.914,914.024,-1732.5,-5398.75,385.0,-133.76,13.68,-221.92
3779.3152,435.54,-209.84,914.268,-927.5,-6037.5,367.5,-132.24,33.44,-212.8
3779.3652,444.385,-202.581,913.902,-1470.0,-4025.0,-227.5,-132.24,10.64,-209.76
3779.4152,434.93,-200.812,915.793,-2038.75,-4602.5,507.5,-115.52,12.16,-223.44
3779.4653,437.736,-207.156,917.806,-2047.5,-4217.5,980.0,-145.92,18.24,-218.88
3779.5152,429.623,-212.524,917.196,-1312.5,-4690.0,1408.75,-136.8,7.6,-215.84
3779.5652,435.113,-204.411,916.037,-2231.25,-5626.25,472.5,-144.4,18.24,-215.84
3779.6152,435.723,-208.62,915.976,-2616.25,-5346.25,420.0,-133.76,13.68,-215.84
3779.6652,451.888,-226.798,915.427,-892.5,-4882.5,927.5,-130.72,27.36,-203.68
3779.7152,442.799,-196.115,912.133,-175.0,-2861.25,-113.75,-144.4,21.28,-218.88
3779.7652,425.719,-205.814,918.172,-3062.5,-3753.75,288.75,-152.0,24.32,-217.36
3779.8152,434.869,-216.489,916.22,-1820.0,-5398.75,2257.5,-123.12,15.2,-211.28
3779.8652,438.163,-212.341,914.512,-1032.5,-4121.25,1837.5,-126.16,10.64,-220.4
3779.9152,436.333,-218.075,914.695,-1837.5,-5600.0,708.75,-141.36,10.64,-206.72
3779.9652,443.47,-211.975,917.135,-1286.25,-4532.5,341.25,-139.84,9.12,-217.36
3780.0152,432.185,-218.258,915.427,-1855.0,-4751.25,568.75,-126.16,12.16,-202.16
3780.0652,439.383,-211.548,914.573,-831.25,-4357.5,-271.25,-127.68,19.76,-214.32
3780.1152,435.235,-204.533,914.756,-1181.25,-3762.5,-665.0,-133.76,21.28,-221.92
3780.1652,431.453,-202.642,916.586,-1916.25,-4996.25,26.25,-126.16,18.24,-223.44
3780.2152,437.553,-208.315,918.172,-1907.5,-4935.0,1513.75,-121.6,0.0,-206.72
3780.2652,431.636,-215.879,913.963,-1557.5,-4620.0,2065.0,-110.96,13.68,-220.4
3780.3152,429.44,-209.596,913.109,-1741.25,-5092.5,630.0,-135.28,6.08,-206.72
3780.3652,442.006,-209.962,912.011,-2528.75,-5250.0,-87.5,-132.24,-9.12,-226.48
3780.4152,440.115,-233.325,918.294,-988.75,-4156.25,647.5,-144.4,27.36,-214.32
3780.4652,431.88,-192.394,916.037,-805.0,-2948.75,-665.0,-138.32,10.64,-214.32
3780.5152,426.512,-202.642,915.793,-3281.25,-3867.5,35.0,-132.24,15.2,-221.92
3780.5652,427.061,-217.099,920.429,-1137.5,-5442.5,2030.0,-133.76,9.12,-215.84
3780.6152,434.991,-211.792,913.902,-927.5,-4663.75,1417.5,-133.76,4.56,-208.24
3780.6652,434.503,-220.332,914.207,-1951.25,-4873.75,262.5,-109.44,18.24,-211.28
3780.7153,432.917,-210.023,915.854,-1452.5,-4305.0,17.5,-120.08,27.36,-220.4
3780.7652,430.111,-215.33,915.732,-1636.25,-4768.75,358.75,-129.2,9.12,-217.36
3780.8152,431.636,-209.23,916.647,-813.75,-5171.25,-35.0,-130.72,3.04,-214.32
3780.8652,435.845,-206.241,915.122,-953.75,-4453.75,-472.5,-126.16,27.36,-208.24
3780.9152,433.832,-203.435,916.22,-2283.75,-3718.75,-183.75,-126.16,12.16,-211.28
3780.9652,427.549,-207.888,921.832,-1583.75,-4200.0,857.5,-141.36,13.68,-221.92
3781.0152,430.355,-211.121,917.562,-1505.0,-4436.25,1478.75,-126.16,12.16,-224.96
3781.0652,425.902,-204.289,919.758,-1505.0,-4838.75,516.25,-129.2,13.68,-217.36
3781.1152,431.087,-210.755,916.098,-2651.25,-5136.25,402.5,-130.72,24.32,-205.2
3781.1652,441.091,-222.955,915.854,-910.0,-5486.25,673.75,-124.64,19.76,-196.08
3781.2152,438.163,-194.468,917.074,-1137.5,-2738.75,656.25,-123.12,18.24,-211.28
3781.2652,413.946,-204.594,915.976,-2808.75,-3622.5,595.0,-124.64,22.8,-206.72
3781.3152,430.538,-216.062,917.44,-2590.0,-5031.25,1452.5,-114.0,30.4,-203.68
3781.3652,424.499,-213.561,917.623,-1373.75,-3762.5,1198.75,-133.76,19.76,-218.88
3781.4152,423.645,-217.16,919.148,-2178.75,-5547.5,1050.0,-112.48,4.56,-211.28
3781.4652,440.359,-215.269,917.318,-1382.5,-4725.0,498.75,-123.12,18.24,-209.76
3781.5152,422.791,-216.428,918.904,-1907.5,-4803.75,271.25,-138.32,18.24,-228.0
3781.5652,436.821,-214.476,913.902,-1032.5,-5661.25,-428.75,-133.76,16.72,-212.8
3781.6152,435.357,-208.376,916.403,-1198.75,-3596.25,-656.25,-117.04,9.12,-234.08
3781.6652,426.573,-205.021,916.525,-1417.5,-4007.5,-323.75,-126.16,27.36,-205.2
3781.7152,431.209,-212.097,918.538,-2170.0,-4418.75,962.5,-123.12,21.28,-218.88
3781.7652,424.255,-215.574,922.991,-778.75,-4375.0,1645.0,-114.0,24.32,-218.88
3781.8152,427.122,-204.594,914.939,-1513.75,-4917.5,866.25,-123.12,-3.04,-221.92
3781.8654,431.209,-219.173,912.377,-3395.0,-4462.5,945.0,-148.96,18.24,-211.28
3781.9152,437.675,-234.24,920.246,-787.5,-5083.75,1697.5,-132.24,6.08,-231.04
3781.9652,427.793,-196.176,920.673,-630.0,-1688.75,796.25,-121.6,7.6,-228.0
3782.0152,414.861,-215.086,919.087,-2870.0,-4725.0,411.25,-145.92,13.68,-217.36
3782.0652,422.303,-220.942,922.625,-1758.75,-4926.25,1400.0,-124.64,22.8,-209.76
3782.1152,424.56,-210.084,917.135,-980.0,-4322.5,1732.5,-124.64,24.32,-223.44
3782.1652,419.497,-216.733,921.161,-1881.25,-5223.75,1382.5,-130.72,18.24,-226.48
3782.2152,430.233,-217.221,923.54,-831.25,-5346.25,288.75,-124.64,16.72,-223.44
3782.2652,422.059,-216.306,917.806,-1933.75,-5775.0,-245.0,-135.28,13.68,-221.92
3782.3152,432.612,-218.99,913.597,-1006.25,-6028.75,-525.0,-126.16,18.24,-224.96
3782.3652,434.686,-207.095,914.939,-533.75,-3867.5,-551.25,-123.12,16.72,-188.48
3782.4152,426.634,-204.228,917.379,-1916.25,-3893.75,-271.25,-135.28,18.24,-221.92
3782.4652,425.841,-210.694,920.856,-2056.25,-3596.25,332.5,-130.72,13.68,-212.8
3782.5152,416.935,-214.293,923.113,-848.75,-4130.0,1636.25,-130.72,19.76,-205.2
3782.5652,419.497,-205.814,918.477,-1085.0,-4838.75,1338.75,-124.64,22.8,-218.88
3782.6152,424.743,-212.707,915.305,-2738.75,-4856.25,708.75,-127.68,19.76,-212.8
3782.6652,438.224,-228.506,922.686,-673.75,-4585.0,1058.75,-127.68,15.2,-215.84
3782.7152,427.183,-202.947,921.405,43.75,-2791.25,332.5,-132.24,27.36,-211.28
3782.7652,408.761,-205.936,922.686,-2966.25,-4348.75,131.25,-136.8,24.32,-215.84
3782.8152,419.07,-217.709,926.041,-2528.75,-5171.25,1268.75,-132.24,18.24,-214.32
3782.8652,423.95,-218.929,916.281,-1032.5,-4462.5,1881.25,-132.24,19.76,-223.44
3782.9152,422.059,-218.258,920.185,-1741.25,-5827.5,866.25,-138.32,19.76,-217.36
3782.9652,425.536,-215.391,922.564,-1242.5,-4856.25,245.0,-121.6,16.72,-224.96
3783.0152,420.9,-217.465,918.294,-1741.25,-5206.25,-26.25,-129.2,16.72,-209.76
3783.0652,430.904,-217.709,917.257,-656.25,-4943.75,-175.0,-110.96,21.28,-200.64
3783.1153,430.782,-207.461,917.989,-411.25,-4033.75,175.0,-118.56,18.24,-218.88
3783.1652,419.497,-206.119,920.856,-2257.5,-4322.5,560.0,-124.64,30.4,-215.84
3783.2152,424.316,-211.121,922.137,-2091.25,-4130.0,603.75,-127.68,3.04,-214.32
3783.2652,415.959,-216.794,922.747,-1303.75,-3858.75,1575.0,-124.64,27.36,-220.4
3783.3152,417.423,-207.583,920.795,-1365.0,-4567.5,393.75,-145.92,6.08,-231.04
3783.3652,423.157,-209.84,921.527,-2625.0,-4891.25,157.5,-126.16,7.6,-220.4
3783.4152,427.915,-233.691,921.039,-1242.5,-4900.0,918.75,-127.68,21.28,-224.96
3783.4652,428.037,-208.254,919.026,743.75,-3228.75,96.25,-130.72,19.76,-228.0
3783.5152,407.724,-204.594,922.137,-2782.5,-3692.5,-70.0,-114.0,28.88,-229.52
3783.5652,417.545,-217.831,924.028,-1951.25,-5215.0,1820.0,-112.48,18.24,-223.44
3783.6152,425.353,-218.502,920.673,-927.5,-4541.25,2021.25,-118.56,18.24,-217.36
3783.6652,414.922,-215.025,922.198,-2196.25,-5661.25,866.25,-112.48,24.32,-231.04
3783.7152,428.952,-219.539,922.503,-1015.0,-5057.5,227.5,-135.28,-3.04,-220.4
3783.7652,413.641,-213.683,923.723,-1697.5,-4760.0,288.75,-135.28,16.72,-224.96
3783.8152,420.046,-215.94,916.525,-971.25,-4803.75,-43.75,-126.16,24.32,-223.44
3783.8652,427.61,-211.06,922.564,-735.0,-3928.75,-122.5,-121.6,24.32,-221.92
3783.9152,413.092,-202.642,920.246,-2030.0,-3850.0,26.25,-139.84,21.28,-211.28
3783.9652,419.07,-215.33,922.564,-1846.25,-3981.25,1050.0,-130.72,36.48,-211.28
3784.0152,409.066,-216.428,925.553,-1295.0,-3998.75,1776.25,-115.52,25.84,-194.56
3784.0652,410.53,-211.67,923.723,-1155.0,-5031.25,953.75,-118.56,22.8,-209.76
3784.1152,415.41,-207.644,925.187,-2292.5,-5477.5,-26.25,-129.2,12.16,-218.88
3784.1652,423.584,-226.676,917.013,-2213.75,-5022.5,673.75,-145.92,9.12,-220.4
3784.2152,422.608,-203.374,925.126,78.75,-2940.0,-210.0,-135.28,28.88,-224.96
3784.2652,404.247,-201.971,925.187,-2572.5,-3141.25,350.0,-141.36,21.28,-228.0
3784.3152,408.334,-217.221,925.553,-2126.25,-5407.5,1977.5,-121.6,16.72,-223.44
3784.3653,420.9,-223.199,925.431,-1400.0,-4760.0,2073.75,-126.16,22.8,-212.8
3784.4152,404.491,-216.367,925.98,-1732.5,-5547.5,1120.0,-126.16,15.2,-237.12
3784.4652,427.427,-218.014,918.477,-1163.75,-4550.0,-183.75,-114.0,22.8,-229.52
3784.5152,410.286,-215.818,923.601,-1933.75,-4768.75,61.25,-126.16,1.52,-224.96
3784.5652,419.68,-220.393,920.978,-708.75,-5678.75,-43.75,-145.92,7.6,-214.32
3784.6152,421.693,-208.376,921.771,-875.0,-3823.75,-236.25,-148.96,18.24,-226.48
3784.6652,411.933,-201.91,921.527,-1618.75,-3972.5,-148.75,-130.72,10.64,-224.96
3784.7152,415.593,-213.439,927.2,-2108.75,-4497.5,1102.5,-124.64,15.2,-220.4
3784.7652,414.068,-217.77,926.163,-1338.75,-4637.5,1951.25,-120.08,22.8,-221.92
3784.8152,410.896,-217.77,924.943,-1207.5,-5180.0,1303.75,-130.72,19.76,-220.4
3784.8652,414.922,-209.718,922.198,-2100.0,-5276.25,-131.25,-130.72,24.32,-212.8
3784.9152,416.508,-216.001,921.039,-2380.0,-4698.75,341.25,-120.08,9.12,-235.6
3784.9652,426.329,-226.676,923.967,586.25,-4103.75,323.75,-127.68,18.24,-217.36
3785.0152,413.885,-193.248,924.455,-1023.75,-2843.75,-26.25,-130.72,9.12,-211.28
3785.0652,398.452,-214.537,926.407,-3150.0,-4611.25,1023.75,-130.72,21.28,-221.92
3785.1152,418.46,-225.212,929.701,-1268.75,-5232.5,2310.0,-129.2,27.36,-209.76
3785.1652,406.138,-218.563,923.357,-516.25,-4497.5,1706.25,-130.72,15.2,-215.84
3785.2152,419.558,-224.175,923.052,-1767.5,-5460.0,87.5,-124.64,16.72,-221.92
3785.2652,411.994,-214.415,924.516,-1898.75,-4952.5,297.5,-121.6,19.76,-215.84
3785.3152,411.628,-221.003,920.185,-1417.5,-5258.75,-218.75,-112.48,10.64,-224.96
3785.3652,421.388,-213.988,919.27,-770.0,-4681.25,-481.25,-139.84,6.08,-220.4
3785.4152,417.057,-209.657,924.028,-848.75,-3692.5,-17.5,-133.76,12.16,-218.88
3785.4652,409.31,-206.729,923.174,-2362.5,-4786.25,918.75,-142.88,15.2,-223.44
3785.5152,412.299,-218.563,925.98,-1601.25,-4865.0,1443.75,-123.12,13.68,-218.88
3785.5652,408.944,-220.454,924.455,-1365.0,-4847.5,1408.75,-117.04,22.8,-223.44
3785.6153,413.946,-210.389,924.089,-1487.5,-4943.75,-236.25,-120.08,15.2,-220.4
3785.6652,416.935,-213.317,925.004,-2581.25,-5031.25,-201.25,-112.48,24.32,-212.8
3785.7152,420.351,-227.896,922.015,-1303.75,-5083.75,1155.0,-130.72,30.4,-218.88
3785.7652,413.031,-195.749,925.492,-796.25,-3325.0,-52.5,-117.04,22.8,-221.92
3785.8152,401.075,-203.496,924.638,-3333.75,-4095.0,297.5,-127.68,22.8,-217.36
3785.8652,408.761,-225.517,927.932,-2030.0,-5678.75,2152.5,-123.12,12.16,-220.4
3785.9152,412.238,-220.454,924.516,-1023.75,-4375.0,1268.75,-127.68,22.8,-212.8
3785.9652,408.334,-221.247,924.699,-1723.75,-5766.25,577.5,-130.72,9.12,-202.16
3786.0152,419.558,-216.855,924.211,-1566.25,-4856.25,-385.0,-141.36,15.2,-237.12
3786.0652,409.859,-220.088,922.32,-1645.0,-4383.75,-113.75,-130.72,34.96,-221.92
3786.1152,418.887,-216.123,922.625,-936.25,-5188.75,-113.75,-114.0,12.16,-215.84
3786.1652,414.617,-206.546,923.906,-971.25,-3368.75,-306.25,-126.16,4.56,-224.96
3786.2152,407.175,-204.716,925.553,-1898.75,-4357.5,315.0,-126.16,16.72,-220.4
3786.2652,410.347,-218.99,925.736,-1951.25,-4593.75,1356.25,-129.2,27.36,-223.44
3786.3152,411.018,-221.003,926.163,-1128.75,-4278.75,1522.5,-123.12,10.64,-220.4
3786.3652,412.055,-217.526,923.723,-1417.5,-4917.5,516.25,-112.48,12.16,-231.04
3786.4152,415.166,-212.28,925.187,-1872.5,-4847.5,-26.25,-138.32,27.36,-221.92
3786.4652,412.665,-218.258,921.039,-2572.5,-5083.75,857.5,-126.16,15.2,-224.96
3786.5152,423.767,-219.234,924.76,1102.5,-3745.0,-227.5,-129.2,15.2,-211.28
3786.5652,404.552,-195.2,925.614,-4401.25,-4095.0,271.25,-127.68,22.8,-212.8
3786.6152,402.051,-219.783,926.651,-2310.0,-4891.25,1741.25,-124.64,30.4,-224.96
3786.6652,416.508,-227.896,927.017,-1093.75,-5381.25,2143.75,-118.56,18.24,-223.44
3786.7152,405.894,-215.635,922.564,-1006.25,-4672.5,752.5,-120.08,27.36,-212.8
3786.7652,421.022,-221.308,923.967,-1487.5,-5346.25,-455.0,-124.64,21.28,-206.72
3786.8152,406.748,-218.258,921.71,-1925.0,-4576.25,-183.75,-133.76,18.24,-226.48
3786.8653,409.615,-221.43,921.466,-840.0,-5600.0,393.75,-129.2,9.12,-231.04
3786.9152,419.985,-210.877,926.041,-656.25,-4165.0,70.0,-133.76,25.84,-211.28
3786.9652,407.236,-208.254,925.858,-1723.75,-3946.25,-166.25,-110.96,12.16,-220.4
3787.0152,408.822,-215.757,926.651,-2345.0,-4593.75,603.75,-120.08,18.24,-220.4
3787.0652,411.262,-220.881,927.322,-1321.25,-3998.75,1277.5,-129.2,18.24,-235.6
3787.1152,404.857,-216.306,925.248,-1015.0,-5215.0,1321.25,-124.64,25.84,-215.84
3787.1652,411.689,-215.025,922.747,-2213.75,-5040.0,236.25,-120.08,34.96,-212.8
3787.2152,411.384,-218.868,921.832,-2187.5,-4768.75,61.25,-123.12,22.8,-212.8
3787.2652,422.669,-231.068,924.882,-131.25,-4375.0,656.25,-133.76,22.8,-202.16
3787.3152,403.149,-198.189,925.309,-2432.5,-3535.0,87.5,-135.28,10.64,-221.92
3787.3652,397.659,-217.831,928.42,-2800.0,-5048.75,1382.5,-135.28,33.44,-214.32
3787.4152,412.177,-223.077,925.98,-1916.25,-5845.0,2117.5,-117.04,16.72,-214.32
3787.4652,409.859,-220.21,921.954,-1382.5,-5442.5,647.5,-112.48,25.84,-223.44
3787.5152,416.142,-219.661,921.649,-1583.75,-4900.0,-17.5,-121.6,27.36,-223.44
3787.5652,411.323,-217.099,923.784,-1723.75,-4375.0,78.75,-121.6,18.24,-224.96
3787.6152,407.175,-224.785,923.418,-1321.25,-4847.5,-78.75,-135.28,25.84,-214.32
3787.6652,416.508,-213.744,922.869,-542.5,-4576.25,-17.5,-124.64,12.16,-228.0
3787.7152,411.994,-210.938,924.15,-1627.5,-3832.5,-122.5,-136.8,6.08,-221.92
3787.7652,405.833,-209.657,928.542,-1855.0,-4296.25,752.5,-130.72,4.56,-218.88
3787.8152,412.055,-217.465,927.749,-1548.75,-4095.0,1688.75,-117.04,16.72,-226.48
3787.8652,400.648,-219.356,927.261,-1260.0,-3806.25,1513.75,-135.28,27.36,-215.84
3787.9152,405.406,-210.999,925.553,-1522.5,-4865.0,43.75,-124.64,27.36,-220.4
3787.9652,409.127,-218.014,923.113,-2397.5,-4733.75,192.5,-118.56,18.24,-217.36
3788.0152,412.97,-232.166,929.457,-1452.5,-5416.25,1260.0,-118.56,22.8,-221.92
3788.0652,409.493,-196.298,925.553,-691.25,-3587.5,-26.25,-117.04,4.56,-220.4
3788.1153,399.611,-220.149,926.285,-2887.5,-4681.25,1268.75,-138.32,4.56,-220.4
3788.1652,403.454,-227.347,927.688,-1706.25,-5871.25,2082.5,-114.0,18.24,-221.92
3788.2152,406.992,-223.504,923.174,-962.5,-4952.5,1216.25,-126.16,21.28,-221.92
3788.2652,411.018,-223.748,923.296,-1776.25,-5670.0,498.75,-126.16,16.72,-218.88
3788.3152,416.386,-217.892,924.882,-1513.75,-4453.75,210.0,-114.0,22.8,-214.32
3788.3652,402.173,-223.809,923.479,-1198.75,-4908.75,385.0,-114.0,18.24,-218.88
3788.4152,412.665,-220.576,921.893,-507.5,-5066.25,-437.5,-124.64,12.16,-212.8
3788.4652,408.212,-210.145,925.98,-1093.75,-3526.25,-647.5,-120.08,25.84,-229.52
3788.5152,400.221,-208.803,925.858,-1671.25,-4278.75,192.5,-109.44,13.68,-211.28
3788.5652,406.138,-217.526,929.579,-1793.75,-4453.75,1050.0,-120.08,15.2,-240.16
3788.6152,394.426,-218.868,930.311,-1382.5,-4217.5,1023.75,-124.64,19.76,-214.32
3788.6652,400.648,-220.393,927.627,-1382.5,-5110.0,323.75,-130.72,27.36,-215.84
3788.7152,410.225,-215.269,927.322,-2248.75,-5267.5,-332.5,-121.6,36.48,-221.92
3788.7652,415.715,-229.848,926.163,-1382.5,-5258.75,586.25,-126.16,21.28,-224.96
3788.8152,419.741,-213.073,926.102,1146.25,-3053.75,-280.0,-135.28,6.08,-218.88
3788.8652,390.156,-208.803,929.64,-2625.0,-3788.75,-17.5,-120.08,24.32,-221.92
3788.9152,393.511,-221.186,928.969,-2178.75,-5792.5,918.75,-120.08,10.64,-215.84
3788.9652,412.97,-220.21,925.065,-1365.0,-5040.0,1802.5,-129.2,21.28,-232.56
3789.0152,400.953,-221.857,926.59,-1916.25,-6098.75,1233.75,-127.68,21.28,-223.44
3789.0652,411.506,-218.746,926.407,-1548.75,-6002.5,-26.25,-126.16,9.12,-232.56
3789.1153,405.772,-225.822,923.967,-2266.25,-5460.0,-113.75,-132.24,31.92,-221.92
3789.1652,408.029,-224.358,923.479,-822.5,-6212.5,-17.5,-118.56,19.76,-228.0
3789.2152,419.802,-211.792,923.54,-770.0,-4935.0,-621.25,-103.36,13.68,-221.92
3789.2652,407.358,-211.06,923.845,-1820.0,-4628.75,-166.25,-126.16,16.72,-220.4
3789.3152,409.249,-214.232,922.808,-1680.0,-4690.0,43.75,-114.0,18.24,-237.12
3789.3653,408.456,-220.088,928.237,-1916.25,-4436.25,708.75,-135.28,9.12,-209.76
3789.4152,405.406,-220.942,924.882,-1146.25,-5118.75,568.75,-132.24,16.72,-224.96
3789.4652,408.334,-213.744,924.089,-2441.25,-5608.75,446.25,-124.64,18.24,-232.56
3789.5152,420.717,-232.715,927.505,-1198.75,-4725.0,822.5,-109.44,28.88,-221.92
3789.5652,424.072,-214.415,923.113,770.0,-2843.75,-131.25,-139.84,30.4,-214.32
3789.6152,394.121,-211.792,923.113,-2065.0,-3298.75,8.75,-110.96,15.2,-214.32
3789.6652,401.258,-219.539,930.372,-1942.5,-4506.25,980.0,-118.56,13.68,-224.96
3789.7152,409.188,-222.101,928.115,-1417.5,-4786.25,1671.25,-126.16,24.32,-218.88
3789.7652,402.234,-221.43,926.59,-1076.25,-5398.75,1277.5,-127.68,9.12,-226.48
3789.8152,411.14,-219.722,929.945,-1452.5,-5206.25,210.0,-135.28,6.08,-211.28
3789.8652,404.918,-220.759,925.431,-1697.5,-5188.75,166.25,-141.36,18.24,-238.64
3789.9152,417.606,-214.537,924.394,-201.25,-6081.25,26.25,-123.12,16.72,-215.84
3789.9652,421.693,-205.387,921.527,-306.25,-4401.25,-131.25,-130.72,27.36,-209.76
3790.0152,404.796,-209.413,929.152,-1540.0,-2712.5,-630.0,-118.56,10.64,-215.84
3790.0652,397.842,-210.267,931.287,-1732.5,-4287.5,-542.5,-120.08,10.64,-220.4
3790.1152,406.321,-215.513,927.871,-1198.75,-4471.25,831.25,-118.56,18.24,-223.44
3790.1652,398.757,-204.899,928.603,-1172.5,-4812.5,1146.25,-121.6,18.24,-215.84
3790.2152,404.186,-209.047,927.322,-2931.25,-5818.75,997.5,-132.24,16.72,-220.4
3790.2652,415.715,-227.286,928.237,-1032.5,-4961.25,1820.0,-127.68,24.32,-224.96
3790.3152,407.297,-200.08,926.407,-831.25,-1925.0,481.25,-129.2,12.16,-211.28
3790.3652,386.74,-205.509,928.115,-2870.0,-2861.25,393.75,-120.08,27.36,-223.44
3790.4152,394.975,-223.748,930.677,-2152.5,-4970.0,1583.75,-117.04,15.2,-226.48
3790.4652,407.053,-222.101,931.531,-1470.0,-4480.0,1907.5,-115.52,25.84,-211.28
3790.5152,396.5,-215.33,931.287,-2056.25,-4882.5,726.25,-124.64,21.28,-218.88
3790.5652,402.966,-221.43,931.287,-1697.5,-5075.0,236.25,-126.16,30.4,-217.36
3790.6153,401.868,-214.171,927.444,-2170.0,-5302.5,778.75,-118.56,12.16,-220.4
3790.6652,409.798,-223.809,925.37,-1417.5,-4882.5,708.75,-141.36,12.16,-218.88
3790.7152,407.602,-217.709,924.089,-787.5,-4121.25,332.5,-126.16,24.32,-224.96
3790.7652,403.088,-212.89,922.503,-1706.25,-2467.5,61.25,-106.4,21.28,-223.44
3790.8152,396.378,-220.942,933.239,-1995.0,-3570.0,402.5,-115.52,6.08,-224.96
3790.8652,394.06,-220.21,930.006,-1207.5,-3736.25,1557.5,-117.04,13.68,-229.52
3790.9152,390.278,-216.855,931.348,-1260.0,-4996.25,1330.0,-124.64,21.28,-217.36
3790.9652,398.757,-214.842,929.396,-2415.0,-5223.75,577.5,-139.84,21.28,-218.88
3791.0152,401.502,-226.92,928.603,-2345.0,-5372.5,778.75,-126.16,24.32,-221.92
3791.0652,397.72,-209.535,929.762,166.25,-3316.25,-17.5,-127.68,16.72,-223.44
3791.1152,388.936,-206.424,929.823,-2450.0,-3823.75,245.0,-120.08,7.6,-228.0
3791.1652,390.4,-221.552,931.348,-1881.25,-5766.25,1172.5,-129.2,18.24,-234.08
3791.2152,400.343,-222.528,929.579,-1137.5,-5066.25,1155.0,-117.04,22.8,-221.92
3791.2652,397.537,-214.842,927.505,-1890.0,-5250.0,638.75,-126.16,22.8,-215.84
3791.3152,407.236,-218.502,929.213,-1277.5,-4488.75,385.0,-130.72,9.12,-224.96
3791.3652,396.927,-219.234,925.797,-2100.0,-4462.5,630.0,-126.16,24.32,-226.48
3791.4152,402.722,-223.321,927.322,-568.75,-5320.0,253.75,-135.28,13.68,-229.52
3791.4652,402.234,-210.633,931.592,-1111.25,-3692.5,-306.25,-138.32,19.76,-223.44
3791.5152,392.779,-208.925,930.494,-1820.0,-3911.25,-43.75,-123.12,22.8,-220.4
3791.5652,394.609,-216.306,935.008,-1977.5,-3762.5,1155.0,-110.96,18.24,-224.96
3791.6152,390.339,-221.979,934.337,-1023.75,-4410.0,2187.5,-117.04,28.88,-240.16
3791.6652,388.204,-213.439,931.836,-1286.25,-5110.0,1093.75,-115.52,21.28,-229.52
3791.7152,397.659,-221.918,930.372,-2467.5,-5066.25,288.75,-114.0,13.68,-218.88
3791.7652,398.391,-228.079,932.385,-2003.75,-5888.75,901.25,-126.16,21.28,-240.16
3791.8152,400.343,-205.753,930.433,-472.5,-3447.5,-131.25,-133.76,21.28,-214.32
3791.8653,387.655,-216.55,929.335,-2616.25,-5197.5,717.5,-109.44,19.76,-224.96
3791.9152,394.609,-221.125,933.117,-1828.75,-5687.5,1233.75,-117.04,10.64,-231.04
3791.9652,399.245,-223.138,924.76,-1242.5,-5013.75,1242.5,-123.12,19.76,-220.4
3792.0152,399.001,-221.552,931.714,-1723.75,-5451.25,936.25,-115.52,13.68,-228.0
3792.0652,406.138,-220.027,930.738,-1356.25,-4357.5,455.0,-104.88,19.76,-220.4
3792.1152,393.45,-225.7,927.81,-1347.5,-4646.25,227.5,-132.24,28.88,-224.96
3792.1652,401.197,-222.528,928.542,-595.0,-4690.0,-271.25,-117.04,22.8,-212.8
3792.2152,400.282,-211.67,930.006,-1111.25,-3465.0,-367.5,-123.12,21.28,-217.36
3792.2652,390.278,-214.11,930.799,-1758.75,-4366.25,315.0,-132.24,12.16,-232.56
3792.3152,396.5,-216.306,933.056,-1750.0,-4331.25,1461.25,-126.16,9.12,-215.84
3792.3652,389.485,-222.101,933.239,-796.25,-4383.75,1855.0,-121.6,25.84,-218.88
3792.4152,387.899,-212.097,929.64,-1181.25,-4777.5,542.5,-118.56,18.24,-218.88
3792.4652,396.622,-220.454,932.385,-2318.75,-4628.75,210.0,-120.08,18.24,-223.44
3792.5152,404.308,-235.277,931.409,-105.0,-4191.25,638.75,-101.84,30.4,-224.96
3792.5652,392.718,-202.52,933.605,-586.25,-3596.25,455.0,-114.0,16.72,-223.44
3792.6152,383.019,-220.637,935.923,-3036.25,-4751.25,910.0,-120.08,19.76,-223.44
3792.6652,385.642,-225.822,933.849,-1680.0,-5635.0,1995.0,-126.16,19.76,-220.4
3792.7152,392.657,-223.382,929.03,-1338.75,-4908.75,1732.5,-129.2,24.32,-235.6
3792.7652,396.866,-224.846,929.396,-1750.0,-5442.5,393.75,-117.04,21.28,-215.84
3792.8152,399.611,-222.406,932.446,-1505.0,-4646.25,-8.75,-120.08,16.72,-228.0
3792.8652,391.315,-227.408,930.372,-1627.5,-5433.75,96.25,-114.0,24.32,-237.12
3792.9152,399.794,-223.992,928.115,-831.25,-5635.0,70.0,-117.04,21.28,-231.04
3792.9652,399.306,-212.219,929.762,-1041.25,-4401.25,-113.75,-117.04,16.72,-228.0
3793.0152,392.901,-214.537,931.226,-1942.5,-4200.0,490.0,-121.6,15.2,-228.0
3793.0652,394.792,-220.21,935.374,-1758.75,-4392.5,717.5,-133.76,19.76,-223.44
3793.1153,388.814,-225.822,931.226,-962.5,-4707.5,1120.0,-126.16,28.88,-235.6
3793.1652,393.328,-214.659,927.322,-2073.75,-5258.75,-105.0,-109.44,15.2,-231.04
3793.2152,397.11,-221.735,932.263,-2248.75,-4900.0,245.0,-126.16,30.4,-232.56
3793.2652,409.31,-235.399,933.727,-52.5,-4200.0,647.5,-124.64,22.8,-223.44
3793.3152,395.707,-201.727,930.616,-892.5,-3132.5,-315.0,-118.56,24.32,-218.88
3793.3652,382.653,-223.199,932.202,-2791.25,-4147.5,630.0,-106.4,25.84,-223.44
3793.4152,398.94,-226.554,931.226,-1400.0,-5180.0,1723.75,-121.6,15.2,-231.04
3793.4652,391.986,-223.992,930.555,-770.0,-4523.75,1443.75,-118.56,6.08,-232.56
3793.5152,395.524,-226.432,930.982,-1618.75,-5092.5,428.75,-120.08,22.8,-221.92
3793.5652,398.635,-221.918,930.372,-1557.5,-4252.5,-8.75,-124.64,24.32,-218.88
3793.6152,388.326,-224.053,930.189,-1286.25,-4348.75,-70.0,-121.6,18.24,-223.44
3793.6652,395.158,-218.441,931.104,-682.5,-4305.0,-463.75,-120.08,24.32,-234.08
3793.7152,394.121,-212.341,931.226,-1085.0,-3570.0,-70.0,-120.08,39.52,-224.96
3793.7652,386.313,-214.964,935.374,-1715.0,-4646.25,201.25,-123.12,13.68,-234.08
3793.8152,391.986,-220.271,934.52,-2038.75,-4296.25,831.25,-124.64,22.8,-231.04
3793.8652,384.056,-223.443,931.958,-988.75,-4550.0,1268.75,-133.76,19.76,-214.32
3793.9152,389.424,-214.659,931.104,-1820.0,-5661.25,621.25,-124.64,12.16,-231.04
3793.9652,396.561,-217.465,928.908,-2397.5,-5188.75,306.25,-133.76,13.68,-223.44
3794.0152,402.966,-233.447,934.337,-70.0,-4331.25,148.75,-115.52,18.24,-221.92
3794.0652,380.823,-207.339,932.995,-1863.75,-3430.0,131.25,-107.92,28.88,-223.44
3794.1152,377.468,-214.354,935.008,-2528.75,-5285.0,822.5,-110.96,18.24,-215.84
3794.1652,393.938,-224.358,933.971,-1881.25,-5897.5,2240.0,-117.04,6.08,-223.44
3794.2152,388.57,-220.271,928.481,-1557.5,-4978.75,2283.75,-124.64,24.32,-220.4
3794.2652,399.123,-225.212,929.213,-1767.5,-5468.75,1190.0,-117.04,24.32,-237.12
3794.3152,388.448,-225.09,933.605,-2073.75,-4340.0,402.5,-120.08,10.64,-228.0
3794.3653,387.167,-230.58,927.688,-1487.5,-5381.25,673.75,-136.8,15.2,-231.04
3794.4152,399.184,-219.966,929.579,-595.0,-4838.75,-253.75,-126.16,19.76,-224.96
3794.4652,391.071,-214.415,932.385,-1505.0,-3482.5,210.0,-118.56,22.8,-217.36
3794.5152,389.363,-213.195,929.762,-2056.25,-3972.5,201.25,-123.12,24.32,-235.6
3794.5652,384.788,-224.358,938.607,-1986.25,-3657.5,1093.75,-118.56,27.36,-215.84
3794.6152,381.067,-223.992,933.666,-997.5,-4593.75,1837.5,-106.4,22.8,-218.88
3794.6652,388.509,-217.831,931.714,-2415.0,-6133.75,1085.0,-124.64,19.76,-221.92
3794.7152,395.524,-234.057,926.773,-2100.0,-5661.25,1006.25,-106.4,15.2,-234.08
3794.7652,405.101,-230.458,937.448,472.5,-3858.75,306.25,-135.28,30.4,-228.0
3794.8152,370.392,-209.84,932.263,-1776.25,-3963.75,385.0,-121.6,30.4,-221.92
3794.8652,384.91,-220.759,933.788,-2826.25,-5600.0,1050.0,-112.48,12.16,-223.44
3794.9152,394.548,-236.741,934.215,-122.5,-5678.75,1960.0,-133.76,39.52,-226.48
3794.9652,389.363,-212.951,928.786,-1277.5,-4628.75,603.75,-120.08,25.84,-220.4
3795.0152,391.559,-220.149,932.873,-2056.25,-4943.75,-525.0,-127.68,28.88,-215.84
3795.0652,386.618,-221.735,933.178,-1968.75,-4803.75,-192.5,-106.4,21.28,-229.52
3795.1152,390.278,-227.103,927.627,-1260.0,-5906.25,131.25,-124.64,24.32,-221.92
3795.1652,401.624,-223.26,930.616,-306.25,-4830.0,35.0,-121.6,12.16,-220.4
3795.2152,387.96,-210.267,930.006,-1680.0,-3552.5,-385.0,-130.72,21.28,-208.24
3795.2652,385.032,-217.709,934.093,-2056.25,-4418.75,-105.0,-141.36,15.2,-229.52
3795.3152,389.729,-222.467,933.483,-1820.0,-3727.5,1382.5,-118.56,24.32,-235.6
3795.3652,379.237,-217.404,934.947,-630.0,-4305.0,1697.5,-114.0,44.08,-234.08
3795.4152,386.923,-214.903,934.581,-2852.5,-5302.5,525.0,-110.96,34.96,-224.96
3795.4652,386.618,-235.948,930.433,-2800.0,-5608.75,945.0,-114.0,24.32,-215.84
3795.5152,397.476,-237.168,936.472,980.0,-4996.25,831.25,-94.24,25.84,-224.96
3795.5652,381.677,-206.973,932.507,-2616.25,-4086.25,288.75,-107.92,15.2,-241.68
3795.6153,381.86,-231.434,934.215,-2677.5,-5678.75,1015.0,-114.0,16.72,-224.96
3795.6652,390.705,-231.922,931.226,-1277.5,-5643.75,1583.75,-124.64,27.36,-220.4
3795.7152,386.862,-224.297,928.603,-1610.0,-5013.75,393.75,-114.0,28.88,-231.04
3795.7652,395.646,-231.373,929.396,-1303.75,-4873.75,-551.25,-121.6,28.88,-238.64
3795.8152,382.653,-222.284,930.372,-656.25,-3762.5,192.5,-118.56,19.76,-228.0
3795.8652,388.143,-225.212,929.457,-1863.75,-6448.75,-26.25,-118.56,9.12,-223.44
3795.9152,396.5,-224.907,932.812,-1601.25,-5363.75,-542.5,-110.96,34.96,-241.68
3795.9652,380.64,-217.709,934.825,17.5,-8330.0,-1697.5,-112.48,28.88,-218.88
3796.0152,410.469,-215.391,926.834,-1898.75,-6492.5,-218.75,-114.0,24.32,-234.08
3796.0652,400.038,-224.358,931.348,-1706.25,-4016.25,630.0,-121.6,25.84,-218.88
3796.1152,394.243,-216.794,927.505,-437.5,-4602.5,1216.25,-118.56,30.4,-206.72
3796.1652,390.156,-208.315,929.945,-1706.25,-4760.0,481.25,-127.68,16.72,-237.12
3796.2152,393.633,-229.543,930.189,-2800.0,-4523.75,-17.5,-126.16,24.32,-229.52
3796.2652,401.075,-216.611,932.995,1155.0,-3946.25,-227.5,-109.44,24.32,-229.52
3796.3152,391.254,-208.742,928.786,-2108.75,-3307.5,-35.0,-118.56,31.92,-223.44
3796.3652,387.899,-223.931,930.86,-1268.75,-4917.5,1408.75,-110.96,30.4,-224.96
3796.4152,396.866,-222.589,933.361,-1233.75,-4978.75,1820.0,-110.96,19.76,-231.04
3796.4652,383.568,-217.16,929.213,-1373.75,-3430.0,1776.25,-117.04,25.84,-241.68
3796.5152,408.517,-225.334,945.378,-3325.0,-1443.75,875.0,-127.68,12.16,-221.92
3796.5652,386.618,-226.371,929.884,-2467.5,-3255.0,682.5,-129.2,41.04,-217.36
3796.6152,391.376,-231.556,929.457,113.75,-4838.75,638.75,-124.64,12.16,-229.52
3796.6652,396.439,-215.025,933.422,-218.75,-3526.25,-1041.25,-124.64,21.28,-223.44
3796.7152,384.788,-208.681,930.982,-1618.75,-3806.25,-1277.5,-126.16,10.64,-223.44
3796.7652,382.287,-214.72,936.655,-1811.25,-5670.0,-105.0,-110.96,34.96,-224.96
3796.8152,386.252,-218.685,934.093,-2135.0,-6860.0,980.0,-115.52,30.4,-247.76
3796.8653,387.411,-217.465,934.52,-726.25,-7315.0,1120.0,-110.96,18.24,-221.92
3796.9152,397.11,-213.134,931.226,-2213.75,-8776.25,-105.0,-107.92,22.8,-215.84
3796.9652,402.966,-219.905,925.309,-3228.75,-7848.75,770.0,-101.84,16.72,-228.0
3797.0152,416.508,-220.393,927.688,840.0,-3438.75,-726.25,-126.16,19.76,-217.36
3797.0652,386.862,-200.812,928.725,-2607.5,-4025.0,-1146.25,-118.56,24.32,-232.56
3797.1152,402.905,-222.65,926.346,-2983.75,-3788.75,446.25,-123.12,10.64,-214.32
3797.1652,403.637,-225.273,929.213,-2170.0,-3500.0,910.0,-106.4,24.32,-241.68
3797.2152,404.064,-220.576,922.259,-1400.0,-1041.25,1242.5,-110.96,18.24,-234.08
3797.2652,381.738,-222.894,940.803,-796.25,-2887.5,586.25,-120.08,19.76,-212.8
3797.3152,388.082,-214.659,933.056,-1505.0,-4156.25,350.0,-112.48,22.8,-211.28
3797.3652,391.986,-222.955,929.64,-1408.75,-4812.5,-280.0,-107.92,16.72,-232.56
3797.4152,389.058,-211.243,932.385,-393.75,-2808.75,-472.5,-129.2,7.6,-209.76
3797.4652,390.583,-209.108,932.69,-980.0,-1435.0,376.25,-127.68,18.24,-234.08
3797.5152,376.736,-213.256,937.997,-2301.25,-2765.0,962.5,-117.04,33.44,-234.08
3797.5652,372.466,-217.404,941.901,-1452.5,-6020.0,1715.0,-107.92,25.84,-224.96
3797.6152,379.908,-214.415,939.034,-1303.75,-6160.0,997.5,-106.4,18.24,-232.56
3797.6652,390.034,-217.221,931.836,-2493.75,-6448.75,166.25,-95.76,31.92,-218.88
3797.7152,394.06,-221.003,933.605,-2695.0,-7008.75,621.25,-117.04,18.24,-221.92
3797.7652,395.524,-213.744,931.775,-131.25,-3946.25,227.5,-130.72,13.68,-212.8
3797.8152,381.433,-206.973,930.616,-3045.0,-4602.5,735.0,-144.4,19.76,-223.44
3797.8652,380.274,-222.101,936.655,-3228.75,-4917.5,1478.75,-130.72,6.08,-223.44
3797.9152,391.01,-229.36,932.019,-1610.0,-5556.25,2073.75,-121.6,36.48,-231.04
3797.9652,390.888,-223.626,927.139,-2362.5,-5722.5,796.25,-110.96,33.44,-234.08
3798.0152,401.99,-230.336,930.799,-1863.75,-4480.0,-262.5,-100.32,10.64,-232.56
3798.0652,391.01,-226.981,928.847,-1120.0,-3368.75,-87.5,-112.48,16.72,-232.56
3798.1153,385.642,-223.809,931.836,-980.0,-3736.25,122.5,-124.64,12.16,-229.52
3798.1652,390.644,-217.526,932.995,-428.75,-3491.25,-52.5,-123.12,16.72,-221.92
3798.2152,381.25,-210.206,934.093,-1601.25,-3001.25,157.5,-124.64,19.76,-238.64
3798.2652,383.019,-218.563,935.923,-1986.25,-3255.0,446.25,-118.56,19.76,-223.44
3798.3152,374.906,-223.87,939.156,-761.25,-3841.25,1032.5,-114.0,24.32,-220.4
3798.3652,375.638,-215.391,936.35,-647.5,-4147.5,647.5,-120.08,38.0,-226.48
3798.4152,378.444,-213.927,933.178,-2476.25,-4970.0,-96.25,-98.8,19.76,-234.08
3798.4652,388.204,-235.033,936.777,-148.75,-4112.5,17.5,-124.64,15.2,-234.08
3798.5152,379.786,-200.385,935.008,-840.0,-4042.5,-630.0,-120.08,34.96,-228.0
3798.5652,372.71,-214.903,936.716,-2511.25,-4331.25,192.5,-124.64,-3.04,-229.52
3798.6152,378.749,-225.212,937.753,-1680.0,-5311.25,1802.5,-114.0,12.16,-224.96
3798.6652,382.531,-218.868,935.496,-691.25,-4506.25,1540.0,-118.56,15.2,-235.6
3798.7152,384.361,-222.04,935.313,-1548.75,-5302.5,393.75,-130.72,18.24,-232.56
3798.7652,389.363,-216.611,936.96,-1566.25,-4523.75,78.75,-106.4,19.76,-238.64
3798.8152,376.675,-221.918,935.13,-1251.25,-4987.5,70.0,-118.56,18.24,-228.0
3798.8652,386.252,-215.94,936.045,-656.25,-4690.0,-192.5,-106.4,13.68,-221.92
3798.9152,382.836,-208.437,938.363,-892.5,-4401.25,105.0,-133.76,39.52,-217.36
3798.9652,379.664,-211.243,937.326,-2362.5,-5083.75,612.5,-121.6,18.24,-226.48
3799.0152,383.69,-220.149,937.326,-2257.5,-4410.0,1268.75,-121.6,27.36,-249.28
3799.0652,377.712,-222.772,939.095,-848.75,-4585.0,1566.25,-115.52,15.2,-234.08
3799.1152,382.653,-212.463,935.191,-2240.0,-5293.75,183.75,-100.32,24.32,-231.04
3799.1652,383.446,-222.955,935.008,-2791.25,-5197.5,428.75,-106.4,30.4,-234.08
3799.2152,390.339,-231.434,937.997,910.0,-3815.0,-210.0,-114.0,27.36,-229.52
3799.2652,377.834,-199.104,934.825,-1277.5,-3421.25,-43.75,-106.4,7.6,-235.6
3799.3152,370.27,-217.221,939.4,-2598.75,-4943.75,1032.5,-130.72,16.72,-231.04
3799.3653,382.836,-225.334,937.265,-953.75,-5372.5,2091.25,-132.24,10.64,-223.44
3799.4152,376.065,-219.356,935.191,-1295.0,-5346.25,1102.5,-124.64,22.8,-229.52
3799.4652,390.827,-224.541,934.154,-1653.75,-5600.0,-166.25,-110.96,19.76,-232.56
3799.5152,378.749,-219.539,933.727,-1820.0,-4410.0,-122.5,-103.36,25.84,-241.68
3799.5652,379.969,-225.334,932.446,-726.25,-5547.5,-8.75,-114.0,16.72,-226.48
3799.6152,392.596,-214.598,935.435,-743.75,-3806.25,-385.0,-106.4,27.36,-220.4
3799.6652,376.309,-207.705,934.337,-1461.25,-3482.5,-393.75,-106.4,28.88,-228.0
3799.7152,378.566,-214.476,935.74,-2056.25,-4138.75,656.25,-130.72,12.16,-229.52
3799.7652,376.736,-221.979,937.326,-1513.75,-4392.5,1303.75,-121.6,22.8,-220.4
3799.8152,373.808,-220.576,938.363,-805.0,-5040.0,1645.0,-118.56,22.8,-232.56
3799.8652,383.385,-214.842,935.374,-2371.25,-5013.75,472.5,-121.6,31.92,-237.12
3799.9152,379.847,-220.271,933.666,-2345.0,-4121.25,210.0,-91.2,28.88,-228.0
3799.9652,390.217,-228.384,937.448,595.0,-3928.75,-367.5,-115.52,25.84,-231.04
3800.0152,366.915,-203.252,939.705,-2397.5,-3543.75,-17.5,-120.08,12.16,-243.2
3800.0652,369.416,-221.552,938.058,-2353.75,-5013.75,1365.0,-117.04,3.04,-229.52
3800.1152,382.653,-232.715,938.302,-1172.5,-5425.0,1968.75,-117.04,16.72,-228.0
3800.1652,373.625,-219.539,938.973,-1513.75,-5337.5,936.25,-121.6,19.76,-235.6
3800.2152,387.838,-220.393,935.984,-1120.0,-5197.5,-236.25,-114.0,25.84,-226.48
3800.2652,376.858,-220.21,936.167,-2161.25,-4331.25,-43.75,-120.08,38.0,-223.44
3800.3152,379.969,-225.029,934.52,-752.5,-5075.0,78.75,-115.52,34.96,-224.96
3800.3652,383.812,-213.622,937.021,-682.5,-4103.75,-113.75,-120.08,21.28,-231.04
3800.4152,373.503,-208.498,937.997,-2117.5,-3508.75,8.75,-117.04,16.72,-232.56
3800.4652,371.185,-214.476,941.596,-2520.0,-4488.75,595.0,-123.12,19.76,-240.16
3800.5152,370.209,-221.369,939.583,-1163.75,-4716.25,1820.0,-124.64,21.28,-214.32
3800.5652,370.697,-219.661,937.814,-980.0,-5425.0,1496.25,-117.04,24.32,-237.12
3800.6153,377.041,-214.964,935.435,-2493.75,-5276.25,-8.75,-103.36,10.64,-232.56
3800.6652,378.749,-225.578,936.96,-2353.75,-5118.75,743.75,-117.04,22.8,-237.12
3800.7152,386.496,-228.506,939.156,463.75,-3998.75,43.75,-118.56,24.32,-208.24
3800.7652,370.331,-204.533,936.838,-2511.25,-3745.0,402.5,-120.08,27.36,-234.08
3800.8152,369.721,-222.711,939.339,-2100.0,-5827.5,1925.0,-120.08,16.72,-235.6
3800.8652,381.921,-226.92,935.557,-1531.25,-5285.0,1793.75,-114.0,9.12,-231.04
3800.9152,374.235,-220.637,933.544,-1303.75,-4760.0,595.0,-130.72,28.88,-223.44
3800.9652,379.542,-223.138,937.692,-1321.25,-5005.0,-122.5,-120.08,22.8,-228.0
3801.0152,375.028,-220.82,938.119,-2178.75,-4243.75,183.75,-112.48,15.2,-231.04
3801.0652,382.287,-220.942,934.398,26.25,-5372.5,315.0,-123.12,16.72,-226.48
3801.1152,384.483,-210.511,935.313,-875.0,-3806.25,-498.75,-124.64,31.92,-228.0
3801.1652,369.904,-210.633,937.448,-1671.25,-3263.75,-61.25,-123.12,18.24,-229.52
3801.2152,370.636,-213.927,940.681,-2056.25,-4331.25,910.0,-112.48,13.68,-234.08
3801.2652,368.44,-222.955,941.779,-1155.0,-3937.5,1688.75,-117.04,19.76,-220.4
3801.3152,370.697,-214.171,938.241,-1050.0,-5705.0,883.75,-110.96,24.32,-228.0
3801.3652,378.2,-214.354,935.862,-2178.75,-5188.75,-262.5,-114.0,15.2,-223.44
3801.4152,374.54,-225.09,939.095,-2415.0,-5223.75,962.5,-124.64,22.8,-235.6
3801.4652,383.995,-230.336,939.095,875.0,-3745.0,-227.5,-118.56,21.28,-237.12
3801.5152,366.061,-202.764,937.814,-2922.5,-3815.0,306.25,-117.04,27.36,-229.52
3801.5652,368.257,-225.517,940.559,-2073.75,-5530.0,1855.0,-112.48,19.76,-237.12
3801.6152,376.98,-227.835,937.753,-1688.75,-5617.5,1890.0,-126.16,15.2,-231.04
3801.6652,373.869,-218.807,933.971,-1487.5,-5127.5,621.25,-100.32,24.32,-226.48
3801.7152,381.067,-224.053,940.01,-1435.0,-4777.5,-411.25,-106.4,22.8,-235.6
3801.7652,370.392,-219.966,938.058,-1811.25,-4628.75,-105.0,-115.52,22.8,-228.0
3801.8152,376.797,-222.467,935.435,-490.0,-5276.25,-105.0,-118.56,18.24,-229.52
3801.8653,381.921,-213.378,935.618,-446.25,-4348.75,-376.25,-123.12,21.28,-223.44
3801.9152,370.636,-208.498,938.607,-1793.75,-3745.0,70.0,-101.84,12.16,-231.04
3801.9652,373.015,-219.356,940.986,-2065.0,-4515.0,1093.75,-117.04,34.96,-220.4
3802.0152,372.405,-220.515,944.463,-1295.0,-4480.0,1601.25,-112.48,13.68,-250.8
3802.0652,371.49,-215.696,937.997,-1181.25,-4987.5,770.0,-121.6,18.24,-232.56
3802.1152,376.126,-214.293,936.655,-2318.75,-5232.5,87.5,-114.0,30.4,-229.52
3802.1652,374.296,-227.164,936.167,-1968.75,-4978.75,1181.25,-110.96,25.84,-234.08
3802.2152,376.736,-207.949,941.413,525.0,-3570.0,-183.75,-114.0,4.56,-223.44
3802.2652,363.804,-202.154,939.888,-2905.0,-3955.0,96.25,-114.0,13.68,-224.96
3802.3152,364.597,-226.798,943.365,-2056.25,-5407.5,1820.0,-124.64,31.92,-232.56
3802.3652,372.649,-226.249,939.095,-1050.0,-4567.5,1338.75,-120.08,-7.6,-234.08
3802.4152,370.819,-221.064,938.912,-1505.0,-5582.5,988.75,-115.52,7.6,-234.08
3802.4652,380.335,-220.637,938.79,-1688.75,-4830.0,-420.0,-118.56,30.4,-235.6
3802.5152,369.965,-223.321,940.315,-1925.0,-4532.5,-393.75,-95.76,28.88,-235.6
3802.5652,375.821,-220.82,934.276,-411.25,-5258.75,-148.75,-101.84,9.12,-237.12
3802.6152,381.616,-210.999,939.095,-918.75,-4042.5,-630.0,-109.44,22.8,-211.28
3802.6652,371.551,-206.729,937.997,-1785.0,-3937.5,-8.75,-117.04,13.68,-224.96
3802.7152,372.1,-219.356,941.596,-1828.75,-4462.5,1312.5,-117.04,24.32,-235.6
3802.7652,366.488,-218.685,940.925,-1531.25,-4261.25,1575.0,-124.64,19.76,-232.56
3802.8152,370.27,-214.72,938.363,-971.25,-5652.5,367.5,-130.72,31.92,-228.0
3802.8652,377.407,-221.064,938.18,-2791.25,-5188.75,-280.0,-106.4,19.76,-221.92
3802.9152,373.442,-226.615,938.302,-2047.5,-5381.25,805.0,-97.28,12.16,-232.56
3802.9652,380.274,-211.792,940.254,831.25,-3858.75,0.0,-114.0,31.92,-220.4
3803.0152,363.621,-211.06,941.657,-3500.0,-3613.75,420.0,-114.0,22.8,-226.48
3803.0652,361.303,-230.397,943.67,-2371.25,-5696.25,1968.75,-118.56,24.32,-215.84
3803.1153,385.276,-227.103,933.605,-945.0,-4506.25,2100.0,-115.52,15.2,-231.04
3803.1652,368.135,-217.953,942.572,-1776.25,-5136.25,813.75,-123.12,16.72,-224.96
3803.2152,380.518,-225.395,937.021,-1776.25,-3701.25,-726.25,-114.0,24.32,-241.68
3803.2652,368.135,-224.053,937.509,-1190.0,-4453.75,175.0,-115.52,24.32,-224.96
3803.3152,370.453,-220.942,938.363,-533.75,-4611.25,341.25,-115.52,13.68,-228.0
3803.3652,378.322,-212.524,941.291,-630.0,-4033.75,-96.25,-118.56,7.6,-244.72
3803.4152,371.795,-209.23,937.143,-1706.25,-3185.0,-525.0,-110.96,9.12,-243.2
3803.4652,369.904,-219.661,941.779,-2371.25,-3368.75,848.75,-114.0,16.72,-234.08
3803.5152,367.464,-222.955,937.204,-1172.5,-3473.75,1408.75,-112.48,13.68,-217.36
3803.5652,365.451,-217.526,940.864,-936.25,-3727.5,1067.5,-91.2,33.44,-238.64
3803.6152,368.074,-217.038,943.06,-2397.5,-4681.25,-210.0,-104.88,34.96,-237.12
3803.6652,377.529,-233.752,938.18,-1540.0,-4873.75,945.0,-110.96,12.16,-235.6
3803.7152,370.758,-215.33,940.62,682.5,-2896.25,-122.5,-118.56,6.08,-237.12
3803.7652,350.811,-210.755,943.121,-2870.0,-3290.0,-463.75,-109.44,16.72,-241.68
3803.8152,351.909,-223.748,944.768,-1890.0,-5031.25,1006.25,-121.6,24.32,-231.04
3803.8652,363.804,-222.223,944.28,-26.25,-5022.5,1382.5,-104.88,22.8,-229.52
3803.9152,366.427,-221.186,942.328,-1312.5,-5215.0,385.0,-109.44,22.8,-234.08
3803.9652,366.854,-215.574,945.5,-875.0,-4655.0,-393.75,-123.12,24.32,-237.12
3804.0152,359.961,-218.136,947.757,-2091.25,-4637.5,297.5,-104.88,18.24,-237.12
3804.0652,358.68,-223.992,944.219,-428.75,-6011.25,752.5,-110.96,10.64,-240.16
3804.1152,371.002,-207.583,940.071,-630.0,-5608.75,586.25,-109.44,12.16,-243.2
3804.1652,365.207,-207.217,939.4,-1662.5,-4147.5,131.25,-121.6,28.88,-226.48
3804.2152,362.279,-215.879,943.487,-2283.75,-4795.0,560.0,-107.92,27.36,-249.28
3804.2652,360.815,-220.515,945.256,-1426.25,-4768.75,1242.5,-106.4,39.52,-234.08
3804.3152,365.451,-216.855,943.121,-1128.75,-4663.75,586.25,-114.0,15.2,-223.44
3804.3653,364.109,-210.816,942.999,-2135.0,-5320.0,-210.0,-124.64,18.24,-240.16
3804.4152,376.248,-230.885,943.182,-1618.75,-5565.0,323.75,-115.52,10.64,-220.4
3804.4652,380.64,-208.437,943.304,201.25,-3438.75,245.0,-124.64,21.28,-231.04
3804.5152,353.556,-205.875,942.877,-2686.25,-3701.25,717.5,-118.56,15.2,-234.08
3804.5652,360.388,-219.173,945.5,-2275.0,-5626.25,1960.0,-100.32,16.72,-229.52
3804.6152,370.697,-221.308,947.391,-1601.25,-5215.0,1942.5,-94.24,16.72,-217.36
3804.6652,363.133,-218.868,941.962,-2511.25,-5713.75,805.0,-112.48,27.36,-228.0
3804.7152,376.919,-224.907,942.572,-1680.0,-5477.5,682.5,-109.44,18.24,-223.44
3804.7652,363.011,-221.125,942.755,-1417.5,-4707.5,700.0,-114.0,7.6,-224.96
3804.8152,370.392,-220.271,938.912,-875.0,-5118.75,0.0,-118.56,18.24,-234.08
3804.8652,372.344,-214.415,940.01,-1076.25,-4112.5,-297.5,-107.92,21.28,-231.04
3804.9152,360.571,-208.864,942.45,-1618.75,-3928.75,-262.5,-109.44,28.88,-232.56
3804.9652,362.706,-212.707,943.914,-2336.25,-4515.0,883.75,-120.08,19.76,-237.12
3805.0152,361.852,-222.04,944.463,-918.75,-4856.25,1916.25,-112.48,28.88,-226.48
3805.0652,361.547,-208.925,942.206,-1758.75,-5320.0,1172.5,-115.52,24.32,-215.84
3805.1152,367.647,-214.354,940.559,-3517.5,-5276.25,271.25,-100.32,34.96,-231.04
3805.1652,374.662,-232.532,947.147,-472.5,-4716.25,533.75,-120.08,10.64,-232.56
3805.2152,353.922,-203.008,944.036,-1365.0,-2773.75,717.5,-130.72,28.88,-232.56
3805.2652,351.421,-212.097,943.548,-2948.75,-4970.0,735.0,-115.52,24.32,-243.2
3805.3152,358.314,-226.005,948.001,-1680.0,-5337.5,1548.75,-104.88,24.32,-220.4
3805.3652,362.645,-218.563,942.633,-1548.75,-4891.25,1732.5,-91.2,38.0,-234.08
3805.4152,367.769,-228.506,939.827,-1680.0,-6256.25,1277.5,-100.32,13.68,-234.08
3805.4652,366.122,-218.014,944.89,-1487.5,-4558.75,175.0,-109.44,6.08,-234.08
3805.5152,358.863,-223.321,936.594,-1750.0,-5285.0,-183.75,-123.12,15.2,-234.08
3805.5652,369.66,-220.454,938.729,-393.75,-5503.75,-568.75,-104.88,28.88,-247.76
3805.6154,371.185,-210.816,939.4,-490.0,-4252.5,-525.0,-110.96,19.76,-221.92
3805.6652,362.767,-204.35,942.938,-2126.25,-4445.0,-533.75,-118.56,30.4,-240.16
3805.7152,358.741,-222.894,945.561,-1636.25,-4978.75,1286.25,-98.8,18.24,-238.64
3805.7652,361.852,-219.356,941.84,-752.5,-5066.25,2231.25,-104.88,39.52,-218.88
3805.8152,360.876,-207.827,942.816,-1977.5,-5433.75,796.25,-103.36,16.72,-235.6
3805.8652,362.645,-231.373,938.607,-2738.75,-4655.0,280.0,-109.44,7.6,-234.08
3805.9152,378.139,-234.118,942.572,682.5,-4725.0,656.25,-114.0,16.72,-224.96
3805.9652,358.436,-196.847,941.901,-1592.5,-1898.75,-96.25,-118.56,13.68,-228.0
3806.0152,345.565,-213.622,944.097,-3211.25,-4033.75,-8.75,-109.44,33.44,-246.24
3806.0652,360.205,-221.491,948.245,-1610.0,-4690.0,1960.0,-114.0,12.16,-238.64
3806.1152,353.8,-215.269,941.413,-1487.5,-4637.5,1898.75,-94.24,21.28,-234.08
3806.1652,362.34,-223.26,940.803,-2283.75,-5460.0,1356.25,-109.44,12.16,-218.88
3806.2152,363.072,-218.99,947.025,-1260.0,-4506.25,481.25,-103.36,15.2,-238.64
3806.2652,356.484,-219.234,943.243,-1977.5,-5460.0,8.75,-114.0,16.72,-241.68
3806.3152,368.013,-224.846,940.071,-507.5,-5075.0,-271.25,-121.6,9.12,-235.6
3806.3652,359.046,-208.742,943.853,-918.75,-3806.25,-262.5,-107.92,16.72,-241.68
3806.4152,353.739,-210.206,946.537,-2318.75,-4707.5,-8.75,-114.0,27.36,-241.68
3806.4652,363.804,-221.674,947.269,-1531.25,-4795.0,1146.25,-110.96,19.76,-217.36
3806.5152,357.033,-219.478,942.084,-1251.25,-4865.0,1723.75,-114.0,18.24,-235.6
3806.5652,359.29,-213.866,943.975,-1697.5,-5416.25,516.25,-88.16,36.48,-228.0
3806.6152,365.146,-219.539,939.156,-2817.5,-4742.5,367.5,-110.96,19.76,-234.08
3806.6652,370.88,-235.399,944.707,-1435.0,-5206.25,1120.0,-115.52,12.16,-223.44
3806.7152,361.486,-203.862,942.572,-306.25,-2940.0,78.75,-107.92,19.76,-232.56
3806.7652,348.554,-215.635,944.951,-3272.5,-4646.25,236.25,-117.04,33.44,-232.56
3806.8152,356.362,-226.798,947.391,-2161.25,-5285.0,1338.75,-100.32,19.76,-235.6
3806.8652,358.436,-217.709,945.683,-341.25,-4541.25,1548.75,-103.36,28.88,-234.08
3806.9152,354.715,-216.428,944.951,-2441.25,-5626.25,1006.25,-114.0,27.36,-232.56
3806.9653,364.414,-226.249,945.134,-1198.75,-4996.25,61.25,-100.32,13.68,-234.08
3807.0152,359.9,-219.051,937.692,-2030.0,-5057.5,70.0,-114.0,21.28,-229.52
3807.0652,362.523,-226.493,941.657,-1190.0,-5293.75,122.5,-109.44,12.16,-243.2
3807.1152,366.671,-213.134,941.413,-673.75,-4051.25,105.0,-120.08,16.72,-241.68
3807.1652,358.558,-211.365,942.816,-2423.75,-5145.0,411.25,-114.0,16.72,-231.04
3807.2152,365.146,-221.979,942.572,-2231.25,-4926.25,752.5,-107.92,21.28,-235.6
3807.2652,354.41,-221.491,945.134,-1050.0,-4786.25,1321.25,-98.8,12.16,-234.08
3807.3152,361.059,-215.879,943.365,-1242.5,-5293.75,866.25,-100.32,30.4,-232.56
3807.3652,362.035,-220.942,942.145,-2957.5,-4821.25,630.0,-123.12,21.28,-231.04
3807.4152,371.917,-235.094,942.999,-1470.0,-5223.75,1408.75,-118.56,18.24,-232.56
3807.4652,364.536,-213.927,945.5,0.0,-3342.5,-262.5,-121.6,9.12,-252.32
3807.5152,351.848,-213.927,942.633,-3430.0,-4243.75,-17.5,-100.32,33.44,-232.56
3807.5652,352.275,-225.822,945.683,-2143.75,-5775.0,1443.75,-114.0,15.2,-235.6
3807.6152,366.549,-226.066,939.522,-1137.5,-4856.25,1732.5,-100.32,33.44,-228.0
3807.6652,354.349,-220.637,942.084,-2327.5,-6177.5,953.75,-98.8,18.24,-223.44
3807.7152,372.771,-228.018,941.474,-1233.75,-5617.5,52.5,-107.92,15.2,-231.04
3807.7652,358.558,-219.966,940.559,-1732.5,-4681.25,26.25,-123.12,19.76,-237.12
3807.8152,362.096,-227.347,941.169,-1312.5,-5407.5,533.75,-120.08,13.68,-229.52
3807.8652,370.087,-219.295,941.169,-525.0,-4392.5,402.5,-107.92,12.16,-221.92
3807.9152,360.571,-213.988,943.67,-1863.75,-3972.5,-245.0,-107.92,10.64,-228.0
3807.9652,359.839,-216.916,943.304,-2135.0,-4270.0,52.5,-91.2,36.48,-240.16
3808.0152,357.643,-223.443,946.293,-1181.25,-3972.5,1575.0,-114.0,31.92,-235.6
3808.0652,360.449,-223.199,944.707,-901.25,-4803.75,910.0,-98.8,15.2,-229.52
3808.1152,359.229,-216.55,943.731,-2030.0,-4611.25,61.25,-110.96,16.72,-221.92
3808.1652,360.815,-227.042,939.705,-2222.5,-5267.5,551.25,-117.04,15.2,-250.8
3808.2153,370.026,-233.752,944.219,595.0,-3823.75,-35.0,-110.96,28.88,-243.2
3808.2652,348.737,-204.045,942.511,-1828.75,-3351.25,-481.25,-94.24,21.28,-232.56
3808.3152,346.785,-222.833,947.574,-2248.75,-5600.0,962.5,-97.28,19.76,-235.6
3808.3652,362.401,-224.663,944.951,-1618.75,-5967.5,1933.75,-94.24,21.28,-220.4
3808.4152,350.384,-219.112,941.901,-2135.0,-5127.5,1400.0,-110.96,25.84,-244.72
3808.4652,360.815,-229.177,944.158,-2091.25,-6632.5,726.25,-107.92,19.76,-226.48
3808.5152,367.159,-221.918,942.328,-1233.75,-4620.0,385.0,-101.84,12.16,-221.92
3808.5652,360.144,-223.687,939.217,-1190.0,-5713.75,-332.5,-120.08,30.4,-247.76
3808.6152,370.636,-223.504,940.925,-612.5,-4742.5,-743.75,-117.04,16.72,-249.28
3808.6652,361.791,-208.071,942.755,-1268.75,-4025.0,-962.5,-114.0,22.8,-241.68
3808.7152,358.741,-220.576,945.988,-2117.5,-4716.25,17.5,-103.36,25.84,-238.64
3808.7652,360.815,-219.478,943.609,-1303.75,-4978.75,1190.0,-120.08,34.96,-220.4
3808.8152,356.606,-224.236,942.877,-1233.75,-4987.5,1347.5,-100.32,30.4,-231.04
3808.8652,360.571,-217.892,940.803,-1618.75,-5031.25,560.0,-107.92,22.8,-253.84
3808.9152,365.451,-226.615,938.851,-2782.5,-4488.75,262.5,-109.44,12.16,-226.48
3808.9652,372.832,-228.384,948.062,280.0,-4331.25,-551.25,-117.04,15.2,-228.0
3809.0152,364.658,-208.803,943.304,-568.75,-1863.75,-70.0,-121.6,39.52,-224.96
3809.0652,340.868,-212.28,946.11,-2222.5,-5328.75,-131.25,-114.0,12.16,-231.04
3809.1152,360.693,-221.613,945.744,-2782.5,-5416.25,848.75,-104.88,18.24,-238.64
3809.1652,353.739,-218.746,940.925,-595.0,-4497.5,1933.75,-112.48,24.32,-237.12
3809.2152,361.974,-226.493,946.476,-2248.75,-6098.75,892.5,-117.04,30.4,-241.68
3809.2652,369.294,-221.552,945.927,-1470.0,-5845.0,323.75,-120.08,34.96,-238.64
3809.3152,358.192,-229.97,938.363,-1496.25,-6195.0,61.25,-121.6,18.24,-246.24
3809.3652,366.366,-219.112,940.071,-481.25,-5652.5,-621.25,-114.0,19.76,-237.12
3809.4152,372.039,-213.805,941.535,-997.5,-5153.75,-1015.0,-104.88,16.72,-237.12
3809.4654,362.584,-218.929,942.572,-2292.5,-5818.75,-271.25,-114.0,34.96,-240.16
3809.5152,374.784,-221.43,944.524,-1907.5,-5591.25,175.0,-115.52,27.36,-244.72
3809.5652,359.473,-225.822,942.023,-778.75,-5862.5,1050.0,-100.32,21.28,-231.04
3809.6152,356.24,-209.596,935.801,-840.0,-7490.0,166.25,-100.32,18.24,-232.56
3809.6652,379.786,-212.463,933.727,-3237.5,-7105.0,-175.0,-107.92,31.92,-224.96
3809.7152,384.91,-227.652,944.158,1023.75,-5066.25,297.5,-123.12,27.36,-237.12
3809.7652,366.671,-205.814,939.705,175.0,-1461.25,796.25,-132.24,19.76,-232.56
3809.8152,364.902,-204.594,943.853,-3342.5,-4488.75,52.5,-115.52,19.76,-229.52
3809.8652,359.839,-218.99,948.306,-1557.5,-5512.5,673.75,-117.04,16.72,-243.2
3809.9152,367.647,-210.938,935.74,-2616.25,-4620.0,2231.25,-110.96,28.88,-237.12
3809.9652,373.564,-230.702,948.489,-472.5,-5206.25,1513.75,-110.96,28.88,-235.6
3810.0152,370.697,-190.869,939.156,-3237.5,-4471.25,0.0,-107.92,16.72,-226.48
3810.0652,368.562,-234.423,945.195,-3491.25,-4165.0,-472.5,-104.88,15.2,-221.92
3810.1152,371.307,-218.258,937.143,1400.0,-5136.25,-1155.0,-110.96,21.28,-220.4
3810.1652,378.2,-201.117,940.559,-1531.25,-3281.25,-630.0,-117.04,12.16,-240.16
3810.2152,357.46,-216.123,946.171,-1890.0,-3237.5,-717.5,-107.92,15.2,-226.48
3810.2652,357.826,-211.365,945.866,-752.5,-5285.0,0.0,-114.0,18.24,-235.6
3810.3152,365.878,-211.365,941.962,-1925.0,-4873.75,-131.25,-94.24,31.92,-228.0
3810.3652,359.778,-210.816,945.073,-1172.5,-5075.0,70.0,-109.44,16.72,-235.6
3810.4152,363.804,-209.352,942.328,-2432.5,-5661.25,385.0,-101.84,22.8,-241.68
3810.4652,377.163,-225.334,944.219,-1496.25,-5801.25,411.25,-104.88,25.84,-235.6
3810.5152,371.124,-203.923,943.182,-35.0,-2747.5,-227.5,-123.12,27.36,-241.68
3810.5652,356.789,-197.274,942.389,-1723.75,-2765.0,-875.0,-101.84,15.2,-226.48
3810.6152,354.288,-208.742,946.293,-2791.25,-5092.5,708.75,-103.36,30.4,-247.76
3810.6652,365.939,-215.147,943.67,-1960.0,-5022.5,2397.5,-103.36,16.72,-234.08
3810.7152,358.436,-211.792,942.816,-2021.25,-5022.5,2415.0,-117.04,22.8,-229.52
3810.7652,370.514,-224.968,946.903,-1592.5,-4952.5,1478.75,-104.88,9.12,-232.56
3810.8153,363.438,-213.439,941.108,-1680.0,-4681.25,1277.5,-135.28,30.4,-234.08
3810.8652,362.218,-220.576,942.572,-2572.5,-5775.0,1076.25,-112.48,25.84,-231.04
3810.9152,368.135,-221.308,942.328,-822.5,-5110.0,1120.0,-109.44,28.88,-224.96
3810.9652,366.671,-210.206,937.997,-1426.25,-4786.25,315.0,-130.72,27.36,-218.88
3811.0152,364.658,-218.502,943.731,-2800.0,-4436.25,-43.75,-109.44,15.2,-221.92
3811.0652,363.438,-222.345,943.67,-1583.75,-4025.0,997.5,-118.56,19.76,-241.68
3811.1152,356.789,-219.112,945.683,-1006.25,-5556.25,1198.75,-110.96,19.76,-229.52
3811.1652,366.61,-214.476,939.156,-2257.5,-5565.0,577.5,-127.68,21.28,-229.52
3811.2152,363.56,-221.674,938.546,-2782.5,-5433.75,1041.25,-126.16,18.24,-241.68
3811.2652,378.505,-229.36,941.413,1295.0,-3552.5,192.5,-110.96,27.36,-234.08
3811.3152,363.926,-199.531,937.082,-971.25,-3412.5,43.75,-114.0,28.88,-228.0
3811.3652,354.837,-217.648,943.243,-2590.0,-4182.5,420.0,-103.36,12.16,-229.52
3811.4152,362.523,-223.87,944.951,-1050.0,-5337.5,1828.75,-120.08,16.72,-243.2
3811.4652,360.51,-214.598,943.67,-1111.25,-4296.25,988.75,-104.88,12.16,-235.6
3811.5152,367.403,-224.663,943.365,-2012.5,-5687.5,-131.25,-114.0,18.24,-238.64
3811.5652,366.488,-214.964,941.596,-1610.0,-4165.0,358.75,-120.08,9.12,-228.0
3811.6152,358.497,-220.515,939.156,-1636.25,-4961.25,813.75,-115.52,24.32,-234.08
3811.6652,366.366,-215.879,945.439,-612.5,-4418.75,271.25,-104.88,25.84,-218.88
3811.7152,362.218,-210.328,944.402,-1688.75,-4156.25,-323.75,-94.24,19.76,-241.68
3811.7652,358.985,-216.184,941.779,-2170.0,-5066.25,131.25,-117.04,27.36,-232.56
3811.8152,367.586,-222.345,944.585,-1111.25,-4401.25,1128.75,-114.0,30.4,-231.04
3811.8652,356.911,-220.576,943.487,-1251.25,-4996.25,1356.25,-124.64,15.2,-228.0
3811.9152,366.183,-213.561,938.241,-2012.5,-5425.0,122.5,-130.72,24.32,-247.76
3811.9652,365.939,-217.16,943.121,-2607.5,-4873.75,52.5,-110.96,34.96,-241.68
3812.0152,374.296,-230.946,942.267,-507.5,-4838.75,603.75,-106.4,27.36,-231.04
3812.0653,360.022,-199.348,942.755,-1951.25,-3858.75,-122.5,-115.52,7.6,-223.44
3812.1152,352.458,-215.086,944.585,-2703.75,-4681.25,516.25,-112.48,19.76,-224.96
3812.1652,362.645,-223.321,943.121,-1680.0,-5871.25,2362.5,-117.04,21.28,-228.0
3812.2152,359.717,-213.317,939.583,-1303.75,-4672.5,1076.25,-123.12,33.44,-229.52
3812.2652,363.072,-223.565,939.156,-2450.0,-5267.5,700.0,-114.0,30.4,-220.4
3812.3152,371.307,-219.234,939.644,-1286.25,-4095.0,551.25,-101.84,21.28,-226.48
3812.3652,358.68,-226.798,940.193,-1618.75,-4558.75,752.5,-120.08,25.84,-241.68
3812.4152,367.342,-216.672,942.572,-805.0,-5118.75,-245.0,-107.92,27.36,-235.6
3812.4652,359.778,-211.609,942.755,-1365.0,-3955.0,-332.5,-98.8,21.28,-241.68
3812.5152,356.911,-212.219,944.341,-1968.75,-4550.0,612.5,-117.04,36.48,-229.52
3812.5652,358.741,-221.735,943.975,-1338.75,-4567.5,1426.25,-114.0,13.68,-232.56
3812.6152,353.922,-218.746,947.025,-1767.5,-4497.5,1067.5,-118.56,33.44,-224.96
3812.6652,362.279,-213.073,942.084,-1321.25,-5521.25,236.25,-124.64,18.24,-238.64
3812.7152,362.279,-214.11,939.827,-2572.5,-5118.75,-245.0,-121.6,21.28,-221.92
3812.7652,368.379,-226.798,940.559,-2178.75,-5600.0,735.0,-101.84,19.76,-232.56
3812.8152,365.085,-209.84,948.001,113.75,-2870.0,192.5,-100.32,13.68,-229.52
3812.8652,349.591,-212.341,944.829,-2782.5,-4935.0,472.5,-115.52,16.72,-224.96
3812.9152,359.046,-223.382,944.463,-2353.75,-5381.25,1050.0,-118.56,18.24,-234.08
3812.9652,362.096,-223.199,942.755,-1128.75,-4086.25,1680.0,-115.52,24.32,-226.48
3813.0152,351.909,-217.831,943.914,-1951.25,-5477.5,1653.75,-115.52,30.4,-247.76
3813.0652,368.806,-227.469,944.707,-1443.75,-5013.75,673.75,-114.0,12.16,-240.16
3813.1152,356.423,-224.236,943.365,-1435.0,-5521.25,490.0,-101.84,21.28,-235.6
3813.1652,365.39,-222.223,941.352,-708.75,-6028.75,-376.25,-121.6,21.28,-232.56
3813.2152,370.697,-212.524,941.718,-831.25,-3972.5,-472.5,-118.56,22.8,-231.04
3813.2652,357.887,-208.315,943.487,-1855.0,-4243.75,288.75,-115.52,18.24,-228.0
3813.3154,361.974,-218.746,947.086,-1811.25,-5127.5,1181.25,-123.12,12.16,-241.68
3813.3652,356.362,-221.247,945.927,-1085.0,-4506.25,1688.75,-117.04,25.84,-232.56
3813.4152,357.643,-214.598,943.182,-1268.75,-5337.5,945.0,-114.0,28.88,-240.16
3813.4652,365.634,-222.467,942.328,-3360.0,-5162.5,183.75,-100.32,27.36,-237.12
3813.5152,365.268,-233.142,936.96,-1776.25,-5678.75,743.75,-92.72,16.72,-241.68
3813.5652,373.625,-214.354,943.365,805.0,-2861.25,-402.5,-110.96,34.96,-234.08
3813.6152,346.541,-212.524,943.975,-2686.25,-3946.25,-166.25,-130.72,24.32,-231.04
3813.6652,355.02,-220.515,948.367,-2432.5,-5153.75,1006.25,-114.0,15.2,-226.48
3813.7152,363.072,-224.785,946.11,-796.25,-4637.5,2073.75,-117.04,24.32,-232.56
3813.7652,357.155,-218.746,944.951,-2266.25,-5328.75,1085.0,-107.92,30.4,-241.68
3813.8152,367.586,-227.896,943.853,-1513.75,-4908.75,0.0,-103.36,24.32,-224.96
3813.8652,353.312,-222.894,942.267,-1662.5,-4217.5,-236.25,-100.32,31.92,-231.04
3813.9152,355.081,-226.31,942.206,-953.75,-5398.75,61.25,-101.84,31.92,-228.0
3813.9652,367.342,-211.304,943.365,-455.0,-4016.25,78.75,-114.0,19.76,-232.56
3814.0152,353.129,-208.132,946.232,-2152.5,-4208.75,262.5,-110.96,34.96,-221.92
3814.0652,356.728,-217.953,947.269,-2327.5,-5127.5,507.5,-109.44,15.2,-243.2
3814.1152,358.131,-223.26,945.378,-1452.5,-4357.5,1443.75,-114.0,19.76,-240.16
3814.1652,353.983,-217.587,947.635,-1050.0,-5311.25,1496.25,-117.04,18.24,-241.68
3814.2152,360.693,-219.6,942.023,-2528.75,-5293.75,446.25,-121.6,13.68,-235.6
3814.2652,360.693,-229.787,938.424,-1522.5,-5363.75,901.25,-110.96,31.92,-241.68
3814.3152,374.052,-226.005,944.158,411.25,-4165.0,-192.5,-92.72,24.32,-238.64
3814.3652,347.944,-204.228,944.951,-2310.0,-3097.5,-43.75,-103.36,24.32,-232.56
3814.4152,352.092,-225.639,948.123,-2353.75,-5442.5,1461.25,-107.92,25.84,-234.08
3814.4652,362.096,-227.469,948.306,-1286.25,-5372.5,2257.5,-118.56,21.28,-234.08
3814.5152,352.397,-218.563,941.23,-1391.25,-5250.0,1321.25,-110.96,19.76,-235.6
3814.5652,363.438,-221.552,942.572,-1750.0,-5696.25,-227.5,-112.48,18.24,-244.72
3814.6152,361.242,-222.162,943.365,-1513.75,-4165.0,-140.0,-101.84,22.8,-240.16
3814.6653,360.754,-220.454,941.23,-612.5,-5118.75,-78.75,-100.32,22.8,-246.24
3814.7152,364.048,-215.269,944.097,-586.25,-4497.5,17.5,-109.44,33.44,-241.68
3814.7652,354.349,-205.631,946.293,-1995.0,-4392.5,297.5,-112.48,18.24,-238.64
3814.8152,355.508,-216.184,944.036,-2686.25,-4917.5,857.5,-109.44,19.76,-238.64
3814.8652,361.059,-219.722,943.609,-1365.0,-4655.0,1557.5,-114.0,6.08,-231.04
3814.9152,354.715,-222.101,941.901,-2012.5,-5092.5,1330.0,-103.36,34.96,-238.64
3814.9652,356.118,-221.247,942.389,-2117.5,-5013.75,437.5,-89.68,22.8,-232.56
3815.0152,354.349,-226.066,941.108,-2056.25,-4865.0,428.75,-91.2,21.28,-241.68
3815.0652,377.834,-228.75,941.718,236.25,-4226.25,315.0,-112.48,22.8,-235.6
3815.1152,356.606,-201.117,947.818,-1190.0,-2598.75,376.25,-107.92,24.32,-231.04
3815.1652,344.162,-220.82,942.267,-3290.0,-5206.25,1443.75,-112.48,16.72,-246.24
3815.2152,357.399,-231.8,945.805,-1960.0,-5582.5,2248.75,-107.92,21.28,-243.2
3815.2652,355.813,-223.992,946.415,-892.5,-4235.0,1452.5,-124.64,9.12,-228.0
3815.3152,361.059,-229.177,944.402,-2170.0,-5503.75,-192.5,-104.88,28.88,-231.04
3815.3652,364.109,-225.822,946.659,-1277.5,-4620.0,0.0,-110.96,19.76,-237.12
3815.4152,352.458,-225.7,944.463,-1085.0,-5153.75,87.5,-109.44,19.76,-244.72
3815.4652,363.316,-220.149,943.975,-507.5,-5083.75,-665.0,-120.08,13.68,-228.0
3815.5152,358.497,-212.219,943.121,-1557.5,-3823.75,-420.0,-112.48,27.36,-229.52
3815.5652,354.715,-217.343,944.646,-1925.0,-4655.0,472.5,-109.44,16.72,-235.6
3815.6152,360.022,-225.09,946.293,-1470.0,-4681.25,1373.75,-112.48,22.8,-232.56
3815.6652,352.519,-220.149,946.354,-1540.0,-4375.0,1356.25,-95.76,18.24,-237.12
3815.7152,357.338,-214.72,943.548,-1522.5,-4882.5,612.5,-94.24,9.12,-226.48
3815.7652,358.436,-217.831,943.121,-2738.75,-4698.75,157.5,-117.04,33.44,-228.0
3815.8152,364.292,-237.107,944.036,-1058.75,-4917.5,787.5,-101.84,16.72,-232.56
3815.8652,368.074,-213.927,944.097,603.75,-3333.75,323.75,-118.56,13.68,-241.68
3815.9154,342.942,-215.513,947.513,-2957.5,-3876.25,962.5,-120.08,13.68,-232.56
3815.9652,348.31,-231.19,950.746,-1802.5,-4908.75,1960.0,-114.0,24.32,-231.04
3816.0153,358.009,-227.713,947.513,-848.75,-4602.5,1531.25,-117.04,38.0,-235.6
3816.0652,350.079,-223.321,945.5,-2231.25,-5836.25,586.25,-97.28,27.36,-241.68
3816.1152,363.682,-229.177,942.755,-945.0,-4908.75,253.75,-95.76,30.4,-244.72
3816.1652,348.493,-223.504,942.267,-1426.25,-4690.0,122.5,-100.32,34.96,-241.68
3816.2152,361.364,-218.258,942.45,-691.25,-5162.5,-227.5,-120.08,19.76,-243.2
3816.2652,362.828,-214.781,943.121,-1085.0,-4261.25,17.5,-118.56,22.8,-238.64
3816.3152,345.809,-214.537,947.574,-2047.5,-4462.5,420.0,-107.92,15.2,-234.08
3816.3652,354.044,-220.515,946.537,-2178.75,-4357.5,1575.0,-109.44,15.2,-244.72
3816.4152,347.273,-222.528,950.99,-1120.0,-4558.75,1496.25,-107.92,41.04,-249.28
3816.4652,353.19,-221.491,945.195,-1750.0,-5040.0,551.25,-91.2,25.84,-247.76
3816.5152,351.299,-220.881,941.962,-1942.5,-5600.0,428.75,-104.88,28.88,-237.12
3816.5652,356.24,-229.665,940.376,-1470.0,-5477.5,840.0,-114.0,22.8,-238.64
3816.6152,363.987,-209.779,947.879,17.5,-3123.75,-271.25,-118.56,19.76,-218.88
3816.6652,340.441,-211.731,949.282,-2607.5,-3447.5,-17.5,-109.44,22.8,-223.44
3816.7152,346.236,-224.968,945.561,-1951.25,-5390.0,1732.5,-118.56,18.24,-238.64
3816.7652,357.033,-229.238,947.818,-1417.5,-5110.0,2318.75,-100.32,25.84,-234.08
3816.8152,345.26,-222.589,943.182,-1863.75,-5766.25,1198.75,-101.84,34.96,-232.56
3816.8652,364.902,-229.909,945.439,-1303.75,-5678.75,70.0,-98.8,33.44,-226.48
3816.9152,352.214,-224.968,947.33,-1435.0,-4515.0,-367.5,-97.28,28.88,-228.0
3816.9652,351.36,-225.212,943.731,-813.75,-6221.25,-577.5,-107.92,28.88,-235.6
3817.0152,365.268,-217.465,940.132,-953.75,-5346.25,-201.25,-110.96,22.8,-229.52
3817.0652,353.556,-212.097,943.121,-1583.75,-4392.5,245.0,-117.04,30.4,-235.6
3817.1152,359.778,-218.075,942.267,-2100.0,-4550.0,1050.0,-110.96,30.4,-228.0
3817.1652,352.702,-227.042,948.123,-1706.25,-3823.75,1356.25,-92.72,18.24,-246.24
3817.2152,348.005,-222.711,945.378,-936.25,-5031.25,708.75,-103.36,30.4,-244.72
3817.2653,356.301,-218.014,942.938,-2152.5,-4935.0,-96.25,-112.48,18.24,-224.96
3817.3152,353.739,-225.212,941.535,-2143.75,-4733.75,700.0,-121.6,36.48,-231.04
3817.3652,361.547,-230.397,945.378,437.5,-4130.0,455.0,-115.52,22.8,-250.8
3817.4152,349.896,-201.91,947.574,-1916.25,-3815.0,-140.0,-100.32,22.8,-240.16
3817.4652,349.347,-223.87,941.535,-2913.75,-4532.5,997.5,-120.08,31.92,-237.12
3817.5152,359.595,-231.983,947.269,-1233.75,-5486.25,1960.0,-115.52,38.0,-229.52
3817.5652,353.617,-222.345,945.378,-1225.0,-4462.5,901.25,-100.32,28.88,-241.68
3817.6152,356.423,-234.057,946.903,-2196.25,-5600.0,-262.5,-98.8,27.36,-231.04
3817.6652,358.07,-226.493,941.474,-1076.25,-5311.25,17.5,-114.0,31.92,-250.8
3817.7152,353.068,-227.469,941.962,-848.75,-4943.75,166.25,-114.0,21.28,-234.08
3817.7652,362.157,-218.685,944.829,-481.25,-4865.0,70.0,-121.6,22.8,-226.48
3817.8152,354.776,-215.94,947.269,-1155.0,-4016.25,-393.75,-120.08,27.36,-252.32
3817.8652,347.822,-218.807,944.646,-2240.0,-5407.5,-376.25,-88.16,25.84,-232.56
3817.9152,357.216,-226.432,945.805,-1365.0,-4830.0,700.0,-91.2,18.24,-240.16
3817.9652,349.957,-224.968,945.195,-717.5,-5022.5,1050.0,-120.08,24.32,-228.0
3818.0152,352.946,-216.062,946.415,-1907.5,-5223.75,-306.25,-117.04,27.36,-235.6
3818.0652,356.057,-222.101,942.267,-2073.75,-5626.25,-962.5,-112.48,15.2,-240.16
3818.1152,366.488,-230.519,944.585,-805.0,-5092.5,-227.5,-112.48,13.68,-246.24
3818.1652,353.312,-201.91,945.134,-1190.0,-3080.0,-367.5,-117.04,19.76,-243.2
3818.2152,346.785,-213.866,948.55,-2318.75,-4637.5,-26.25,-95.76,24.32,-234.08
3818.2652,358.192,-219.6,942.999,-2152.5,-5923.75,1793.75,-94.24,21.28,-241.68
3818.3152,360.51,-224.358,944.036,-1286.25,-5180.0,1785.0,-101.84,19.76,-228.0
3818.3652,358.802,-222.04,941.474,-2800.0,-6055.0,997.5,-110.96,25.84,-237.12
3818.4152,363.255,-227.469,942.206,-1365.0,-4795.0,332.5,-126.16,21.28,-244.72
3818.4652,355.63,-225.09,939.278,-1443.75,-4996.25,402.5,-114.0,10.64,-237.12
3818.5154,365.39,-222.101,943.182,-1015.0,-5101.25,-498.75,-117.04,21.28,-241.68
3818.5652,363.194,-213.744,943.853,-848.75,-4296.25,-498.75,-109.44,21.28,-244.72
3818.6152,356.301,-212.402,943.182,-1960.0,-4340.0,-332.5,-118.56,25.84,-235.6
3818.6652,360.937,-222.589,947.269,-1828.75,-4401.25,700.0,-112.48,15.2,-244.72
3818.7152,353.373,-222.955,943.67,-1006.25,-4926.25,1461.25,-109.44,18.24,-224.96
3818.7652,359.412,-212.402,940.742,-2205.0,-4690.0,945.0,-103.36,6.08,-229.52
3818.8152,363.499,-226.859,937.753,-2485.0,-3990.0,726.25,-117.04,34.96,-228.0
3818.8652,366.732,-232.044,945.134,-813.75,-3946.25,875.0,-110.96,22.8,-234.08
3818.9152,349.652,-208.986,945.866,-866.25,-2598.75,472.5,-117.04,33.44,-241.68
3818.9652,341.478,-208.803,947.33,-2423.75,-4882.5,-17.5,-101.84,22.8,-237.12
3819.0152,350.323,-227.591,944.951,-2257.5,-5862.5,1618.75,-103.36,28.88,-232.56
3819.0652,357.338,-220.271,940.742,-1680.0,-4401.25,2257.5,-120.08,21.28,-221.92
3819.1152,353.8,-224.053,943.731,-2432.5,-5687.5,1540.0,-110.96,21.28,-237.12
3819.1652,360.876,-225.639,945.683,-1907.5,-4270.0,525.0,-110.96,15.2,-224.96
3819.2152,348.371,-228.079,945.317,-1312.5,-5740.0,376.25,-112.48,27.36,-240.16
3819.2652,365.634,-226.554,940.62,-525.0,-5871.25,-393.75,-112.48,25.84,-235.6
3819.3152,365.939,-210.45,941.291,-498.75,-3955.0,-516.25,-115.52,27.36,-235.6
3819.3652,359.107,-210.938,944.097,-2003.75,-3955.0,-122.5,-100.32,13.68,-241.68
3819.4152,356.118,-220.942,947.574,-1758.75,-4366.25,402.5,-114.0,6.08,-237.12
3819.4652,347.334,-224.053,944.951,-385.0,-5302.5,1443.75,-114.0,22.8,-235.6
3819.5152,357.582,-208.925,942.816,-1767.5,-5425.0,341.25,-114.0,19.76,-228.0
3819.5652,357.033,-234.118,939.095,-3246.25,-5241.25,367.5,-121.6,31.92,-243.2
3819.6152,373.137,-238.998,943.548,227.5,-5250.0,1277.5,-104.88,16.72,-234.08
3819.6652,356.606,-209.84,944.768,-1548.75,-2091.25,52.5,-117.04,25.84,-238.64
3819.7152,346.419,-222.833,947.086,-1846.25,-4786.25,-201.25,-101.84,18.24,-229.52
3819.7652,354.349,-223.809,947.269,-1610.0,-5591.25,682.5,-120.08,21.28,-237.12
3819.8152,348.432,-219.6,945.378,-1146.25,-4471.25,1312.5,-109.44,19.76,-244.72
3819.8653,355.325,-228.628,944.28,-1566.25,-6343.75,1863.75,-107.92,12.16,-244.72
3819.9152,362.767,-218.99,948.733,-962.5,-4567.5,122.5,-114.0,6.08,-244.72
3819.9652,350.811,-223.748,941.169,-1811.25,-5460.0,-315.0,-100.32,33.44,-234.08
3820.0152,363.438,-227.103,940.132,-376.25,-5013.75,-113.75,-101.84,13.68,-237.12
3820.0652,359.717,-209.779,944.89,-638.75,-3648.75,-26.25,-104.88,22.8,-232.56
3820.1152,355.142,-212.463,946.415,-2056.25,-4191.25,0.0,-115.52,21.28,-229.52
3820.1652,358.131,-220.759,948.428,-1750.0,-4366.25,595.0,-110.96,4.56,-231.04
3820.2152,349.713,-219.173,944.28,-1531.25,-4532.5,1505.0,-94.24,28.88,-247.76
3820.2652,353.373,-217.282,947.574,-1303.75,-4733.75,1216.25,-109.44,28.88,-231.04
3820.3152,358.924,-219.295,943.731,-3290.0,-5136.25,708.75,-97.28,25.84,-238.64
3820.3652,364.17,-235.094,942.938,-953.75,-4970.0,1023.75,-94.24,9.12,-224.96
3820.4152,362.035,-217.77,945.073,140.0,-2651.25,280.0,-110.96,22.8,-243.2
3820.4652,341.417,-211.243,946.72,-2423.75,-4252.5,70.0,-118.56,19.76,-249.28
3820.5152,347.212,-219.417,945.561,-2703.75,-5145.0,1251.25,-103.36,16.72,-235.6
3820.5652,354.105,-228.506,944.89,-910.0,-4733.75,2065.0,-112.48,28.88,-234.08
3820.6152,345.626,-218.136,948.55,-2187.5,-6090.0,1251.25,-123.12,30.4,-234.08
3820.6652,358.558,-230.519,946.72,-1575.0,-5740.0,175.0,-120.08,33.44,-241.68
3820.7152,350.018,-217.892,943.121,-1618.75,-4873.75,-175.0,-126.16,16.72,-247.76
3820.7652,354.837,-225.578,945.012,-953.75,-6063.75,-595.0,-109.44,22.8,-231.04
3820.8152,362.523,-218.868,943.548,-498.75,-5215.0,35.0,-120.08,18.24,-231.04
3820.8652,353.739,-211.182,940.681,-2187.5,-4663.75,-227.5,-104.88,18.24,-226.48
3820.9152,355.264,-218.807,946.598,-2485.0,-5040.0,297.5,-104.88,25.84,-232.56
3820.9652,358.253,-221.43,944.158,-1163.75,-4296.25,1155.0,-95.76,28.88,-226.48
3821.0152,354.532,-221.186,943.365,-1242.5,-4961.25,805.0,-107.92,21.28,-243.2
3821.0652,356.85,-214.049,943.67,-2082.5,-5040.0,525.0,-101.84,18.24,-243.2
3821.1154,354.593,-227.896,940.986,-1968.75,-5223.75,1128.75,-120.08,7.6,-232.56
3821.1652,369.477,-232.898,945.988,8.75,-3876.25,455.0,-121.6,24.32,-243.2
3821.2152,348.432,-207.583,943.182,-1986.25,-2852.5,-192.5,-120.08,22.8,-246.24
3821.2652,339.953,-222.04,949.648,-2730.0,-5048.75,892.5,-115.52,30.4,-238.64
3821.3152,356.24,-229.482,947.818,-1898.75,-5285.0,1837.5,-97.28,25.84,-231.04
3821.3652,346.968,-217.526,944.28,-1216.25,-5057.5,1496.25,-117.04,34.96,-237.12
3821.4152,360.144,-231.312,944.402,-1557.5,-5757.5,420.0,-104.88,12.16,-228.0
3821.4652,360.388,-222.894,942.999,-1233.75,-4270.0,280.0,-104.88,12.16,-234.08
3821.5152,347.7,-224.907,944.463,-1365.0,-5101.25,323.75,-103.36,15.2,-232.56
3821.5652,358.314,-222.589,945.622,-638.75,-5407.5,323.75,-112.48,34.96,-232.56
3821.6152,349.164,-213.561,946.476,-1391.25,-5031.25,-288.75,-98.8,30.4,-229.52
3821.6652,352.397,-218.197,946.72,-2388.75,-4690.0,341.25,-117.04,39.52,-228.0
3821.7152,354.898,-224.724,945.073,-1373.75,-4803.75,1531.25,-103.36,34.96,-238.64
3821.7652,348.127,-222.711,946.171,-1216.25,-5092.5,1251.25,-114.0,21.28,-218.88
3821.8152,355.874,-219.905,943.731,-1513.75,-4961.25,201.25,-104.88,33.44,-224.96
3821.8652,354.715,-224.236,943.792,-2695.0,-4716.25,385.0,-126.16,25.84,-232.56
3821.9152,365.207,-237.229,944.768,-297.5,-4278.75,455.0,-114.0,33.44,-249.28
3821.9652,355.63,-209.169,942.938,-455.0,-3255.0,78.75,-98.8,31.92,-237.12
3822.0152,341.844,-220.027,948.245,-2887.5,-4628.75,525.0,-103.36,12.16,-228.0
3822.0652,348.859,-229.787,947.818,-927.5,-5556.25,2108.75,-104.88,16.72,-238.64
3822.1152,355.386,-222.589,943.365,-787.5,-4541.25,1242.5,-112.48,41.04,-226.48
3822.1652,352.031,-228.079,943.914,-2432.5,-5643.75,280.0,-110.96,31.92,-247.76
3822.2152,364.414,-226.371,942.999,-848.75,-4672.5,341.25,-118.56,27.36,-231.04
3822.2652,349.408,-223.443,944.768,-1365.0,-4077.5,918.75,-86.64,25.84,-228.0
3822.3152,359.961,-222.894,944.158,-568.75,-4340.0,463.75,-109.44,21.28,-238.64
3822.3652,347.029,-215.94,948.977,-1198.75,-4068.75,-218.75,-114.0,19.76,-247.76
3822.4152,347.7,-217.587,948.367,-2231.25,-4287.5,358.75,-115.52,18.24,-243.2
3822.4653,350.628,-226.005,947.208,-1802.5,-4768.75,1207.5,-112.48,19.76,-241.68
3822.5152,343.186,-228.262,946.781,-1802.5,-4935.0,1163.75,-89.68,21.28,-235.6
3822.5652,348.554,-220.332,947.269,-1303.75,-5083.75,175.0,-120.08,28.88,-237.12
3822.6152,350.14,-219.966,945.744,-2213.75,-5731.25,-603.75,-89.68,28.88,-232.56
3822.6652,359.351,-232.593,945.134,-1925.0,-5407.5,-43.75,-106.4,6.08,-231.04
3822.7152,363.011,-224.053,949.709,315.0,-3447.5,-323.75,-107.92,16.72,-238.64
3822.7652,335.073,-210.023,947.757,-2117.5,-5223.75,315.0,-107.92,16.72,-243.2
3822.8152,347.517,-225.517,948.855,-2826.25,-6195.0,1198.75,-110.96,31.92,-243.2
3822.8652,355.081,-230.519,947.513,-1277.5,-5713.75,1872.5,-98.8,27.36,-226.48
3822.9152,348.859,-222.711,945.5,-1968.75,-6195.0,1802.5,-104.88,9.12,-238.64
3822.9652,365.085,-231.8,945.866,-1540.0,-5241.25,385.0,-115.52,25.84,-231.04
3823.0152,352.702,-226.798,942.511,-1793.75,-4856.25,-78.75,-107.92,38.0,-221.92
3823.0652,359.961,-228.994,940.498,-700.0,-5635.0,-621.25,-110.96,22.8,-237.12
3823.1152,364.475,-216.977,941.84,-577.5,-4392.5,-778.75,-95.76,34.96,-229.52
3823.1652,350.201,-216.306,943.243,-1697.5,-4130.0,-262.5,-98.8,27.36,-240.16
3823.2152,356.24,-220.088,944.097,-1671.25,-4751.25,787.5,-112.48,38.0,-231.04
3823.2652,351.177,-225.273,948.672,-1715.0,-4243.75,1277.5,-98.8,28.88,-238.64
3823.3152,351.36,-220.515,943.182,-1032.5,-5136.25,1146.25,-123.12,12.16,-241.68
3823.3652,358.863,-218.746,940.315,-2502.5,-5617.5,490.0,-114.0,30.4,-234.08
3823.4152,353.617,-236.192,941.718,-1557.5,-4952.5,708.75,-114.0,28.88,-235.6
3823.4652,358.741,-217.465,947.879,262.5,-3001.25,498.75,-97.28,31.92,-231.04
3823.5152,339.77,-206.668,944.707,-2213.75,-4112.5,-341.25,-88.16,28.88,-235.6
3823.5652,348.188,-230.153,945.866,-2406.25,-5801.25,455.0,-100.32,16.72,-246.24
3823.6152,355.996,-220.454,945.622,-901.25,-4838.75,1636.25,-115.52,21.28,-249.28
3823.6652,345.687,-221.247,944.219,-2205.0,-5810.0,1828.75,-101.84,19.76,-235.6
3823.7154,369.782,-232.959,944.463,-1032.5,-6343.75,490.0,-106.4,28.88,-229.52
3823.7652,359.778,-227.347,946.598,-1400.0,-5145.0,-157.5,-100.32,31.92,-237.12
3823.8152,359.107,-228.933,938.607,-105.0,-5967.5,-551.25,-107.92,18.24,-229.52
3823.8652,370.27,-206.302,942.389,-131.25,-4340.0,-910.0,-109.44,19.76,-226.48
3823.9152,357.765,-203.191,942.755,-2152.5,-3788.75,-1023.75,-129.2,24.32,-240.16
3823.9652,354.471,-221.552,942.999,-2878.75,-4838.75,332.5,-95.76,33.44,-231.04
3824.0152,359.29,-223.382,941.596,-1548.75,-4681.25,1706.25,-95.76,28.88,-246.24
3824.0652,355.691,-220.271,942.999,-1216.25,-4856.25,1645.0,-106.4,6.08,-232.56
3824.1152,364.17,-218.624,942.45,-3115.0,-4847.5,735.0,-118.56,15.2,-235.6
3824.1652,359.168,-229.97,939.339,-2345.0,-4681.25,1111.25,-118.56,13.68,-237.12
3824.2152,366.976,-227.347,946.354,743.75,-2362.5,490.0,-110.96,25.84,-246.24
3824.2652,337.574,-209.84,944.951,-2878.75,-3473.75,87.5,-120.08,27.36,-234.08
3824.3152,342.21,-224.114,948.916,-2817.5,-4786.25,752.5,-103.36,25.84,-234.08
3824.3652,354.654,-229.787,947.757,-1286.25,-4786.25,2161.25,-104.88,18.24,-235.6
3824.4152,342.698,-223.992,945.195,-1102.5,-5136.25,1627.5,-101.84,24.32,-241.68
3824.4652,356.911,-231.312,946.415,-1846.25,-5643.75,78.75,-110.96,21.28,-238.64
3824.5152,355.264,-222.711,942.877,-1688.75,-4821.25,-271.25,-129.2,25.84,-224.96
3824.5652,354.227,-229.299,941.779,-1583.75,-5425.0,113.75,-112.48,22.8,-241.68
3824.6152,365.329,-223.199,943.731,-507.5,-4261.25,236.25,-95.76,38.0,-246.24
3824.6652,355.264,-215.33,943.853,-901.25,-3780.0,-175.0,-97.28,34.96,-244.72
3824.7152,350.384,-218.502,945.378,-2590.0,-4672.5,-280.0,-101.84,24.32,-221.92
3824.7652,357.948,-224.541,945.378,-988.75,-3920.0,770.0,-100.32,34.96,-240.16
3824.8152,345.931,-222.345,947.025,-1207.5,-4733.75,1225.0,-112.48,27.36,-237.12
3824.8652,356.24,-216.855,945.378,-1680.0,-5092.5,463.75,-114.0,31.92,-240.16
3824.9152,358.07,-221.308,940.864,-2353.75,-5083.75,1102.5,-103.36,30.4,-246.24
3824.9652,364.841,-236.375,945.805,-1216.25,-4593.75,752.5,-109.44,10.64,-249.28
3825.0152,346.541,-209.291,946.781,-1435.0,-3342.5,-367.5,-101.84,24.32,-234.08
3825.0653,340.258,-216.489,947.452,-2712.5,-4270.0,577.5,-107.92,7.6,-240.16
3825.1152,352.153,-228.75,947.086,-1583.75,-5792.5,1811.25,-115.52,12.16,-228.0
3825.1652,348.92,-222.406,942.023,-1207.5,-4690.0,831.25,-104.88,24.32,-243.2
3825.2152,352.031,-226.005,945.744,-2353.75,-5845.0,201.25,-112.48,28.88,-234.08
3825.2652,360.998,-222.284,946.293,-1347.5,-4445.0,52.5,-98.8,19.76,-241.68
3825.3152,353.8,-222.65,942.511,-1767.5,-4681.25,498.75,-91.2,16.72,-228.0
3825.3652,358.863,-221.613,944.89,-568.75,-4672.5,367.5,-114.0,21.28,-221.92
3825.4152,357.826,-216.489,942.206,-1741.25,-3613.75,-210.0,-97.28,19.76,-231.04
3825.4652,351.726,-215.574,944.89,-2161.25,-3911.25,236.25,-103.36,15.2,-228.0
3825.5152,352.458,-227.896,950.075,-1513.75,-3990.0,1513.75,-107.92,27.36,-232.56
3825.5652,344.406,-225.395,947.879,-1225.0,-3876.25,1408.75,-110.96,34.96,-238.64
3825.6152,345.992,-222.894,950.563,-1242.5,-5302.5,192.5,-107.92,31.92,-246.24
3825.6652,353.373,-224.053,943.182,-1767.5,-5293.75,70.0,-104.88,28.88,-247.76
3825.7152,354.532,-225.883,943.609,-1373.75,-5731.25,1443.75,-104.88,22.8,-241.68
3825.7652,359.839,-214.171,946.598,-87.5,-3342.5,113.75,-121.6,13.68,-240.16
3825.8152,336.903,-218.746,946.72,-2852.5,-4383.75,358.75,-107.92,19.76,-229.52
3825.8652,342.393,-228.506,947.269,-2205.0,-5801.25,1233.75,-110.96,42.56,-224.96
3825.9152,360.754,-228.323,946.049,-525.0,-4847.5,1356.25,-107.92,31.92,-240.16
3825.9652,346.907,-219.783,946.415,-2073.75,-5407.5,761.25,-109.44,24.32,-235.6
3826.0152,359.412,-231.739,946.415,-1391.25,-5162.5,140.0,-110.96,21.28,-223.44
3826.0652,349.652,-226.066,940.986,-1303.75,-4488.75,385.0,-124.64,13.68,-235.6
3826.1152,349.225,-226.188,944.768,-1006.25,-5818.75,-280.0,-115.52,27.36,-228.0
3826.1652,361.181,-215.391,943.548,-656.25,-4261.25,-1146.25,-106.4,28.88,-240.16
3826.2152,350.567,-210.572,946.72,-1636.25,-3998.75,-525.0,-100.32,30.4,-234.08
3826.2652,352.946,-223.321,946.11,-1881.25,-4646.25,892.5,-100.32,22.8,-234.08
3826.3154,348.737,-219.295,947.574,-1793.75,-4410.0,1408.75,-106.4,25.84,-241.68
3826.3652,343.247,-222.772,947.208,-1382.5,-5188.75,770.0,-100.32,24.32,-240.16
3826.4152,353.495,-218.014,946.415,-2222.5,-5705.0,175.0,-115.52,19.76,-249.28
3826.4652,356.057,-232.41,945.012,-1872.5,-5110.0,463.75,-106.4,39.52,-229.52
3826.5152,365.756,-223.748,947.147,262.5,-4130.0,306.25,-106.4,28.88,-237.12
3826.5652,340.136,-211.426,943.67,-1907.5,-3902.5,96.25,-95.76,27.36,-238.64
3826.6152,343.369,-220.515,949.404,-2677.5,-5083.75,402.5,-104.88,18.24,-234.08
3826.6652,355.142,-227.774,945.866,-1548.75,-5398.75,1548.75,-112.48,18.24,-231.04
3826.7152,346.114,-222.223,943.243,-2362.5,-5915.0,1758.75,-114.0,19.76,-231.04
3826.7652,361.913,-231.007,945.378,-1820.0,-5643.75,953.75,-123.12,33.44,-232.56
3826.8152,349.652,-227.53,943.792,-2537.5,-5180.0,446.25,-109.44,22.8,-234.08
3826.8652,351.97,-234.667,945.134,-1076.25,-5687.5,-17.5,-98.8,25.84,-238.64
3826.9152,366.61,-221.186,939.949,-288.75,-4698.75,-385.0,-104.88,41.04,-224.96
3826.9652,351.604,-210.938,945.256,-1732.5,-3893.75,-533.75,-92.72,30.4,-235.6
3827.0152,349.53,-221.125,943.548,-2266.25,-4725.0,183.75,-106.4,25.84,-240.16
3827.0652,350.994,-221.308,947.574,-1478.75,-4462.5,1260.0,-114.0,18.24,-229.52
3827.1152,349.957,-220.332,946.659,-1207.5,-5512.5,945.0,-106.4,19.76,-244.72
3827.1652,353.129,-216.916,943.975,-2397.5,-6011.25,420.0,-117.04,27.36,-224.96
3827.2152,358.192,-239.12,937.692,-1181.25,-5775.0,953.75,-95.76,18.24,-241.68
3827.2652,374.967,-230.824,948.855,1575.0,-4182.5,8.75,-101.84,24.32,-235.6
3827.3152,338.245,-203.496,947.33,-2905.0,-2397.5,-936.25,-107.92,12.16,-241.68
3827.3652,346.419,-231.922,950.563,-2056.25,-5197.5,813.75,-115.52,21.28,-243.2
3827.4152,356.24,-228.201,950.319,-770.0,-5433.75,2310.0,-117.04,28.88,-232.56
3827.4652,347.456,-221.674,942.389,-2415.0,-5206.25,1767.5,-104.88,27.36,-241.68
3827.5152,359.473,-233.935,943.731,-1680.0,-5232.5,717.5,-86.64,33.44,-247.76
3827.5652,348.432,-222.101,947.513,-1522.5,-4121.25,-201.25,-106.4,27.36,-218.88
3827.6152,352.214,-229.421,943.67,-735.0,-5521.25,-656.25,-98.8,28.88,-234.08
3827.6653,366.671,-220.027,944.829,35.0,-4865.0,52.5,-95.76,25.84,-249.28
3827.7152,351.421,-208.864,944.097,-1583.75,-3788.75,227.5,-127.68,10.64,-240.16
3827.7652,351.909,-223.199,946.659,-2135.0,-4401.25,796.25,-124.64,27.36,-240.16
3827.8152,349.591,-222.528,946.11,-1163.75,-4200.0,1321.25,-126.16,16.72,-229.52
3827.8652,348.249,-222.284,948.245,-1330.0,-4593.75,1391.25,-104.88,27.36,-232.56
3827.9152,348.371,-222.467,946.903,-1960.0,-5188.75,1006.25,-101.84,16.72,-238.64
3827.9652,351.604,-230.946,941.047,-2082.5,-4672.5,577.5,-103.36,10.64,-238.64
3828.0152,367.891,-229.055,949.526,770.0,-3745.0,35.0,-118.56,13.68,-228.0
3828.0652,348.005,-205.143,947.757,-1286.25,-2292.5,-131.25,-120.08,22.8,-237.12
3828.1152,337.452,-221.674,947.086,-2931.25,-5118.75,673.75,-114.0,19.76,-243.2
3828.1652,349.286,-231.068,950.075,-1995.0,-5110.0,1732.5,-91.2,31.92,-232.56
3828.2152,346.297,-221.857,946.781,-568.75,-4725.0,1820.0,-101.84,38.0,-244.72
3828.2652,354.898,-228.445,948.184,-2012.5,-5495.0,166.25,-95.76,21.28,-237.12
3828.3152,358.924,-226.554,949.16,-1356.25,-4480.0,-271.25,-110.96,34.96,-240.16
3828.3652,344.345,-223.016,944.28,-1286.25,-5591.25,-306.25,-104.88,28.88,-243.2
3828.4152,357.216,-221.308,941.352,-525.0,-5600.0,-437.5,-110.96,10.64,-246.24
3828.4652,352.824,-209.474,945.5,-1085.0,-3622.5,105.0,-101.84,18.24,-238.64
3828.5152,343.796,-216.001,948.123,-2616.25,-4532.5,393.75,-104.88,30.4,-220.4
3828.5652,349.591,-224.48,946.903,-1898.75,-4900.0,1408.75,-107.92,10.64,-231.04
3828.6152,341.295,-223.138,949.587,-1400.0,-4716.25,2135.0,-114.0,15.2,-226.48
3828.6652,350.994,-218.868,945.134,-1820.0,-5608.75,778.75,-117.04,19.76,-237.12
3828.7152,351.726,-221.674,943.975,-2913.75,-5048.75,-113.75,-107.92,15.2,-250.8
3828.7652,358.619,-236.68,946.659,-848.75,-5092.5,533.75,-110.96,41.04,-243.2
3828.8152,363.072,-218.38,948.062,822.5,-3010.0,113.75,-97.28,24.32,-235.6
3828.8652,333.304,-212.829,949.343,-2791.25,-4567.5,507.5,-106.4,16.72,-232.56
3828.9152,348.92,-235.277,947.696,-1872.5,-5442.5,1995.0,-114.0,18.24,-232.56
3828.9652,350.872,-228.75,948.367,-962.5,-4733.75,1645.0,-112.48,16.72,-234.08
3829.0153,344.894,-223.565,947.391,-1960.0,-5451.25,630.0,-118.56,12.16,-253.84
3829.0652,357.277,-230.763,946.476,-1382.5,-5285.0,131.25,-101.84,15.2,-228.0
3829.1152,344.162,-223.992,945.927,-1146.25,-4550.0,-227.5,-97.28,27.36,-237.12
3829.1652,356.057,-222.772,943.853,-700.0,-5232.5,-271.25,-79.04,34.96,-235.6
3829.2152,358.497,-215.94,944.646,-770.0,-3543.75,-122.5,-100.32,39.52,-232.56
3829.2652,341.234,-210.206,947.757,-2283.75,-4296.25,393.75,-117.04,22.8,-234.08
3829.3152,349.53,-225.944,949.892,-1680.0,-4733.75,1417.5,-124.64,19.76,-246.24
3829.3652,344.467,-221.552,948.977,-1330.0,-4847.5,1715.0,-114.0,34.96,-241.68
3829.4152,345.809,-223.321,947.818,-1242.5,-4970.0,883.75,-114.0,34.96,-234.08
3829.4652,350.811,-219.295,945.5,-2388.75,-5136.25,-8.75,-95.76,24.32,-243.2
3829.5152,346.175,-234.301,941.84,-1723.75,-5013.75,691.25,-95.76,15.2,-234.08
3829.5652,359.29,-216.733,947.025,306.25,-3508.75,297.5,-101.84,21.28,-237.12
3829.6152,335.5,-210.572,949.404,-2170.0,-3552.5,306.25,-112.48,22.8,-238.64
3829.6652,344.528,-226.432,948.55,-2590.0,-5337.5,1085.0,-106.4,16.72,-240.16
3829.7152,351.238,-231.19,946.476,-1461.25,-4847.5,1618.75,-106.4,24.32,-238.64
3829.7652,339.282,-221.979,945.195,-1242.5,-4821.25,1452.5,-103.36,30.4,-246.24
3829.8152,352.519,-232.837,949.038,-1531.25,-5381.25,87.5,-107.92,39.52,-240.16
3829.8652,352.58,-225.578,948.123,-1242.5,-4226.25,-560.0,-110.96,16.72,-224.96
3829.9152,346.541,-224.358,946.293,-866.25,-5197.5,-411.25,-106.4,21.28,-238.64
3829.9652,357.155,-213.256,948.184,-927.5,-3780.0,-175.0,-100.32,27.36,-237.12
3830.0152,344.223,-212.829,947.696,-1592.5,-3613.75,183.75,-100.32,18.24,-232.56
3830.0652,340.197,-224.114,949.465,-2065.0,-5057.5,1146.25,-104.88,25.84,-234.08
3830.1152,348.188,-221.613,947.574,-1470.0,-4515.0,1303.75,-94.24,36.48,-224.96
3830.1652,337.269,-224.236,950.746,-1513.75,-5136.25,1120.0,-98.8,15.2,-234.08
3830.2152,347.761,-222.467,946.415,-2196.25,-5110.0,113.75,-110.96,21.28,-231.04
3830.2654,347.883,-226.31,943.548,-2537.5,-4786.25,603.75,-109.44,27.36,-221.92
3830.3152,358.985,-233.874,949.953,210.0,-4453.75,446.25,-98.8,38.0,-244.72
3830.3652,345.26,-205.997,948.855,-1470.0,-2852.5,-218.75,-94.24,22.8,-238.64
3830.4152,333.304,-226.066,949.709,-2651.25,-5547.5,507.5,-107.92,24.32,-224.96
3830.4652,350.628,-230.153,948.489,-1347.5,-4681.25,1505.0,-92.72,19.76,-240.16
3830.5152,338.672,-226.737,947.574,-910.0,-4882.5,1198.75,-103.36,18.24,-232.56
3830.5652,348.981,-230.153,947.818,-2187.5,-5398.75,385.0,-109.44,28.88,-235.6
3830.6152,351.238,-223.016,945.378,-1050.0,-5022.5,-157.5,-97.28,22.8,-244.72
3830.6652,345.687,-224.419,944.707,-1321.25,-4786.25,-455.0,-98.8,30.4,-244.72
3830.7152,356.606,-221.857,947.025,-612.5,-4488.75,-262.5,-94.24,19.76,-243.2
3830.7652,352.397,-213.5,947.391,-1128.75,-3648.75,-201.25,-109.44,13.68,-238.64
3830.8152,341.173,-219.295,946.598,-2178.75,-4786.25,122.5,-106.4,30.4,-243.2
3830.8652,347.029,-223.748,948.367,-1190.0,-4891.25,1347.5,-103.36,33.44,-247.76
3830.9152,344.772,-223.626,947.513,-1443.75,-4576.25,1461.25,-98.8,36.48,-240.16
3830.9652,343.186,-215.757,948.794,-1610.0,-4812.5,428.75,-98.8,15.2,-234.08
3831.0152,344.65,-218.014,951.234,-2878.75,-5066.25,183.75,-117.04,15.2,-234.08
3831.0652,352.031,-235.582,947.452,-1330.0,-5670.0,927.5,-110.96,31.92,-244.72
3831.1152,342.942,-207.278,949.282,-1023.75,-3535.0,-245.0,-110.96,33.44,-237.12
3831.1652,336.903,-215.208,948.001,-2835.0,-4278.75,-183.75,-112.48,27.36,-253.84
3831.2152,342.393,-227.286,949.587,-1925.0,-5958.75,1662.5,-101.84,24.32,-228.0
3831.2652,353.678,-229.665,946.781,-857.5,-5075.0,1470.0,-109.44,28.88,-252.32
3831.3152,339.892,-220.027,947.818,-2765.0,-5460.0,-43.75,-107.92,31.92,-240.16
3831.3652,357.765,-228.384,944.768,-1015.0,-4226.25,61.25,-112.48,30.4,-229.52
3831.4152,342.454,-220.027,947.574,-1557.5,-4602.5,752.5,-100.32,31.92,-246.24
3831.4652,352.763,-229.665,944.646,-1233.75,-4751.25,306.25,-94.24,19.76,-237.12
3831.5152,353.19,-216.001,946.232,-717.5,-3438.75,-70.0,-91.2,15.2,-231.04
3831.5652,340.502,-213.683,949.648,-2143.75,-3648.75,-323.75,-101.84,22.8,-234.08
3831.6153,346.358,-228.14,949.343,-2222.5,-4383.75,1050.0,-112.48,10.64,-243.2
3831.6652,337.635,-228.689,950.441,-980.0,-3990.0,1627.5,-117.04,18.24,-234.08
3831.7152,342.027,-220.881,949.953,-1251.25,-5608.75,341.25,-106.4,19.76,-246.24
3831.7652,346.541,-222.04,945.561,-2336.25,-5223.75,35.0,-101.84,24.32,-246.24
3831.8152,346.053,-228.75,944.402,-1837.5,-5180.0,761.25,-101.84,13.68,-243.2
3831.8652,351.604,-217.831,950.136,1006.25,-3928.75,-201.25,-115.52,18.24,-244.72
3831.9152,338.184,-207.583,947.879,-2283.75,-3893.75,-148.75,-109.44,36.48,-232.56
3831.9652,337.574,-228.628,951.905,-1575.0,-5031.25,1260.0,-100.32,33.44,-224.96
3832.0152,346.663,-227.042,950.929,-1023.75,-5197.5,1373.75,-94.24,22.8,-231.04
3832.0652,336.537,-222.955,949.282,-1417.5,-5425.0,770.0,-92.72,28.88,-243.2
3832.1152,349.286,-229.36,946.72,-1373.75,-5993.75,8.75,-106.4,18.24,-235.6
3832.1652,343.918,-222.467,944.463,-1330.0,-5013.75,288.75,-101.84,13.68,-224.96
3832.2152,346.968,-226.92,946.72,-857.5,-5250.0,-332.5,-114.0,36.48,-234.08
3832.2652,351.299,-216.611,945.622,-393.75,-4751.25,-1391.25,-106.4,21.28,-231.04
3832.3152,345.443,-211.304,950.868,-1216.25,-4462.5,-1128.75,-109.44,30.4,-249.28
3832.3652,347.151,-215.025,949.282,-2117.5,-4935.0,0.0,-97.28,16.72,-238.64
3832.4152,343.552,-220.271,946.293,-1365.0,-5040.0,1198.75,-106.4,13.68,-231.04
3832.4652,343.796,-222.406,948.367,-638.75,-5556.25,971.25,-112.48,36.48,-220.4
3832.5152,349.286,-215.696,945.927,-2415.0,-5118.75,-402.5,-106.4,9.12,-235.6
3832.5652,347.029,-222.162,943.426,-2152.5,-5145.0,78.75,-107.92,34.96,-240.16
3832.6152,366.488,-222.772,949.465,-638.75,-4453.75,-26.25,-112.48,21.28,-232.56
3832.6652,334.341,-209.291,950.563,-1155.0,-3893.75,647.5,-101.84,25.84,-224.96
3832.7152,337.513,-211.121,946.903,-2196.25,-5906.25,358.75,-109.44,21.28,-238.64
3832.7652,356.606,-229.421,945.439,-2056.25,-4672.5,1505.0,-126.16,4.56,-234.08
3832.8152,341.6,-217.77,946.903,-1417.5,-4602.5,1627.5,-104.88,24.32,-235.6
3832.8652,345.748,-225.822,952.576,-2021.25,-5556.25,708.75,-91.2,25.84,-234.08
3832.9152,348.493,-225.334,946.537,-1487.5,-4830.0,236.25,-98.8,21.28,-243.2
3832.9653,339.465,-225.395,947.33,-980.0,-5853.75,-472.5,-115.52,9.12,-238.64
3833.0152,361.791,-217.404,945.561,-621.25,-4882.5,-857.5,-109.44,13.68,-228.0
3833.0652,346.297,-209.474,946.049,-1015.0,-3946.25,-603.75,-117.04,16.72,-237.12
3833.1152,349.225,-210.938,946.598,-2178.75,-4182.5,-61.25,-104.88,28.88,-240.16
3833.1652,345.931,-224.724,949.221,-1408.75,-4532.5,848.75,-114.0,24.32,-253.84
3833.2152,346.907,-218.685,947.94,-262.5,-4838.75,1015.0,-91.2,18.24,-232.56
3833.2652,348.188,-207.4,942.877,-2502.5,-5556.25,-245.0,-109.44,36.48,-237.12
3833.3152,348.981,-236.131,945.195,-1155.0,-4567.5,586.25,-106.4,9.12,-246.24
3833.3652,364.841,-219.051,950.868,1575.0,-4270.0,253.75,-117.04,28.88,-241.68
3833.4152,331.596,-202.398,947.086,-2371.25,-3036.25,-437.5,-106.4,25.84,-246.24
3833.4652,346.846,-217.038,952.942,-1811.25,-4663.75,-17.5,-103.36,18.24,-234.08
3833.5152,342.088,-217.404,954.894,-1802.5,-5075.0,1627.5,-100.32,15.2,-237.12
3833.5652,338.611,-217.343,946.476,-1618.75,-5696.25,2528.75,-107.92,12.16,-243.2
3833.6152,347.944,-220.21,952.332,-1408.75,-6090.0,1041.25,-98.8,18.24,-223.44
3833.6652,347.822,-220.515,950.868,-1916.25,-5783.75,-682.5,-106.4,19.76,-237.12
3833.7152,346.48,-220.149,941.596,-1478.75,-6571.25,-472.5,-112.48,12.16,-228.0
3833.7652,362.401,-219.295,944.463,-341.25,-6081.25,350.0,-104.88,25.84,-243.2
3833.8152,358.07,-196.603,940.681,-1793.75,-3963.75,-96.25,-101.84,13.68,-237.12
3833.8652,346.602,-220.149,947.269,-3228.75,-4445.0,218.75,-115.52,16.72,-232.56
3833.9152,353.739,-222.284,946.781,-367.5,-4690.0,1102.5,-109.44,21.28,-235.6
3833.9652,350.75,-213.866,945.561,-1365.0,-4681.25,813.75,-97.28,22.8,-243.2
3834.0152,348.249,-213.5,948.977,-1767.5,-5241.25,901.25,-104.88,31.92,-228.0
3834.0652,352.153,-226.127,942.694,-1837.5,-4856.25,1015.0,-97.28,27.36,-252.32
3834.1152,365.817,-226.615,944.646,-612.5,-4943.75,507.5,-101.84,10.64,-221.92
3834.1652,350.201,-202.764,946.415,-1093.75,-1671.25,-201.25,-118.56,13.68,-228.0
3834.2154,332.877,-210.023,952.21,-2992.5,-4278.75,498.75,-117.04,31.92,-237.12
3834.2652,343.552,-223.077,952.881,-2143.75,-5276.25,1907.5,-101.84,24.32,-237.12
3834.3152,340.99,-215.025,945.195,-1198.75,-4830.0,2047.5,-117.04,34.96,-238.64
3834.3652,350.323,-222.589,945.927,-1863.75,-5398.75,813.75,-112.48,15.2,-244.72
3834.4152,354.349,-220.576,948.001,-1592.5,-5101.25,105.0,-110.96,27.36,-235.6
3834.4652,340.319,-220.088,947.513,-2100.0,-5302.5,61.25,-109.44,15.2,-238.64
3834.5152,355.996,-224.419,943.487,-971.25,-5643.75,420.0,-115.52,10.64,-234.08
3834.5652,347.822,-206.668,950.441,-673.75,-4567.5,218.75,-112.48,19.76,-228.0
3834.6152,347.456,-213.927,949.831,-2975.0,-5110.0,603.75,-100.32,36.48,-241.68
3834.6652,352.336,-225.09,948.733,-2003.75,-5005.0,1461.25,-95.76,24.32,-231.04
3834.7152,348.066,-221.674,945.073,-1793.75,-5048.75,1601.25,-97.28,34.96,-234.08
3834.7652,352.763,-225.09,945.5,-1627.5,-5276.25,822.5,-120.08,33.44,-229.52
3834.8152,349.164,-216.367,950.624,-2222.5,-4926.25,-183.75,-101.84,28.88,-235.6
3834.8652,358.436,-231.129,942.938,-1977.5,-5381.25,700.0,-109.44,27.36,-228.0
3834.9152,359.168,-222.467,949.892,910.0,-3106.25,105.0,-109.44,22.8,-226.48
3834.9652,340.807,-209.23,947.269,-2336.25,-3605.0,192.5,-101.84,19.76,-237.12
3835.0152,341.173,-223.199,948.123,-2275.0,-5547.5,1540.0,-107.92,9.12,-235.6
3835.0652,354.959,-226.432,946.354,-1286.25,-4751.25,1732.5,-118.56,9.12,-240.16
3835.1152,342.21,-216.062,946.659,-1837.5,-4051.25,1146.25,-107.92,13.68,-234.08
3835.1652,348.676,-224.053,948.123,-1627.5,-5013.75,481.25,-95.76,24.32,-246.24
3835.2152,338.733,-222.406,953.857,-1802.5,-5022.5,796.25,-97.28,24.32,-234.08
3835.2652,345.504,-222.406,945.5,-1041.25,-6238.75,673.75,-101.84,13.68,-235.6
3835.3152,353.556,-216.489,947.269,-1181.25,-5932.5,-17.5,-112.48,18.24,-238.64
3835.3652,347.334,-214.476,947.391,-1881.25,-4270.0,-236.25,-118.56,22.8,-229.52
3835.4152,348.188,-217.343,946.171,-2511.25,-5468.75,376.25,-91.2,15.2,-244.72
3835.4652,350.872,-224.175,949.038,-1513.75,-4760.0,1356.25,-117.04,28.88,-234.08
3835.5152,349.896,-221.674,946.049,-1032.5,-5635.0,1041.25,-104.88,22.8,-238.64
3835.5654,352.153,-212.89,942.328,-2388.75,-5740.0,-166.25,-94.24,25.84,-231.04
3835.6152,351.604,-229.543,942.572,-2152.5,-5696.25,1041.25,-103.36,31.92,-232.56
3835.6652,365.695,-226.371,942.999,1032.5,-3692.5,306.25,-117.04,13.68,-241.68
3835.7152,348.066,-209.23,946.415,-2021.25,-3438.75,-341.25,-121.6,21.28,-232.56
3835.7652,343.491,-223.382,948.916,-2178.75,-4733.75,656.25,-107.92,28.88,-243.2
3835.8152,347.883,-228.323,947.269,-1793.75,-5363.75,1347.5,-106.4,25.84,-240.16
3835.8652,346.053,-220.271,945.195,-1198.75,-4978.75,848.75,-97.28,30.4,-238.64
3835.9152,359.534,-230.336,947.025,-1583.75,-5573.75,262.5,-109.44,27.36,-247.76
3835.9652,360.693,-222.711,942.755,-1093.75,-4226.25,516.25,-114.0,16.72,-229.52
3836.0152,347.09,-229.055,944.524,-1382.5,-4698.75,-8.75,-95.76,33.44,-246.24
3836.0652,351.909,-223.26,945.805,-428.75,-4506.25,-700.0,-97.28,31.92,-240.16
3836.1152,353.495,-210.816,946.598,-1146.25,-4313.75,-761.25,-109.44,27.36,-241.68
3836.1652,349.53,-215.879,947.696,-1732.5,-4462.5,61.25,-118.56,30.4,-234.08
3836.2152,347.761,-218.014,950.075,-1662.5,-4830.0,691.25,-110.96,18.24,-237.12
3836.2652,348.432,-221.552,947.513,-1347.5,-5048.75,1032.5,-109.44,31.92,-238.64
3836.3152,349.957,-215.696,946.964,-1828.75,-6055.0,236.25,-110.96,16.72,-238.64
3836.3652,358.619,-218.075,942.084,-2502.5,-5258.75,262.5,-117.04,41.04,-231.04
3836.4152,368.867,-231.678,946.415,-542.5,-4908.75,157.5,-110.96,27.36,-238.64
3836.4652,360.51,-211.548,946.293,-630.0,-2607.5,43.75,-95.76,21.28,-240.16
3836.5152,338.794,-217.953,950.197,-2458.75,-4532.5,463.75,-115.52,12.16,-232.56
3836.5652,350.506,-225.883,949.892,-1951.25,-5556.25,875.0,-103.36,22.8,-241.68
3836.6152,352.092,-219.966,947.147,-1618.75,-4340.0,1627.5,-89.68,22.8,-220.4
3836.6652,352.58,-227.713,948.611,-1837.5,-5827.5,1478.75,-100.32,25.84,-232.56
3836.7152,359.961,-223.382,946.598,-1820.0,-4672.5,96.25,-110.96,9.12,-234.08
3836.7652,342.942,-231.8,943.975,-1522.5,-5188.75,-367.5,-120.08,18.24,-255.36
3836.8152,362.523,-218.99,941.779,-210.0,-5372.5,-971.25,-120.08,21.28,-241.68
3836.8652,357.582,-212.707,943.426,-778.75,-4567.5,-787.5,-109.44,31.92,-237.12
3836.9153,349.591,-218.624,947.147,-1365.0,-4453.75,96.25,-120.08,33.44,-229.52
3836.9652,354.41,-217.16,946.781,-1960.0,-4593.75,175.0,-88.16,12.16,-240.16
3837.0152,343.125,-224.968,947.879,-787.5,-5381.25,472.5,-109.44,16.72,-235.6
3837.0652,356.24,-214.293,945.561,-1268.75,-5232.5,-26.25,-107.92,6.08,-235.6
3837.1152,357.277,-218.563,937.021,-3018.75,-5547.5,-437.5,-114.0,25.84,-238.64
3837.1652,370.941,-236.497,945.5,787.5,-4585.0,-271.25,-100.32,33.44,-240.16
3837.2152,350.994,-197.457,945.744,-1163.75,-2380.0,-752.5,-106.4,28.88,-237.12
3837.2652,338.855,-213.622,950.197,-2170.0,-4462.5,-1303.75,-114.0,28.88,-234.08
3837.3152,353.312,-224.541,952.088,-1172.5,-5057.5,743.75,-117.04,30.4,-246.24
3837.3652,354.715,-215.391,943.975,70.0,-5713.75,1470.0,-112.48,13.68,-238.64
3837.4152,359.29,-215.391,942.511,-1653.75,-6746.25,813.75,-110.96,18.24,-243.2
3837.4652,364.841,-214.354,942.084,-822.5,-4830.0,-595.0,-123.12,19.76,-231.04
3837.5152,351.238,-217.16,943.426,-1023.75,-3666.25,-1251.25,-110.96,25.84,-229.52
3837.5652,358.924,-205.57,948.55,288.75,-4725.0,-2283.75,-112.48,21.28,-240.16
3837.6152,356.301,-201.971,952.21,-770.0,-3902.5,-1977.5,-124.64,-3.04,-238.64
3837.6652,351.909,-197.64,944.28,-1723.75,-4970.0,-1680.0,-106.4,10.64,-241.68
3837.7152,360.144,-210.511,948.55,-1260.0,-4716.25,43.75,-123.12,16.72,-238.64
3837.7652,357.277,-212.158,949.282,1032.5,-4541.25,1417.5,-107.92,15.2,-247.76
3837.8152,355.447,-190.076,944.707,-2038.75,-3613.75,1295.0,-112.48,18.24,-231.04
3837.8652,352.214,-223.016,948.367,-2213.75,-3955.0,1373.75,-114.0,16.72,-235.6
3837.9152,358.375,-220.698,949.282,17.5,-5223.75,892.5,-106.4,10.64,-232.56
3837.9652,355.325,-186.843,948.794,-1671.25,-3010.0,-1032.5,-107.92,16.72,-234.08
3838.0152,340.136,-195.505,948.733,-3657.5,-3771.25,-525.0,-104.88,24.32,-240.16
3838.0652,351.665,-212.646,951.6,-2511.25,-4348.75,2231.25,-97.28,30.4,-232.56
3838.1152,345.016,-207.705,948.672,-1225.0,-3272.5,2922.5,-101.84,18.24,-240.16
3838.1654,341.661,-210.145,951.356,-2668.75,-4681.25,1601.25,-104.88,18.24,-234.08
3838.2152,347.334,-213.561,953.247,-2327.5,-4672.5,866.25,-103.36,27.36,-243.2
3838.2652,345.382,-211.975,949.526,-2423.75,-5136.25,953.75,-106.4,12.16,-232.56
3838.3152,352.58,-219.783,945.012,-1662.5,-5145.0,971.25,-106.4,27.36,-240.16
3838.3652,353.434,-208.559,947.33,-822.5,-4357.5,892.5,-91.2,25.84,-228.0
3838.4152,347.761,-206.302,946.598,-2555.0,-4033.75,148.75,-94.24,9.12,-243.2
3838.4652,346.968,-221.796,948.428,-2021.25,-5355.0,481.25,-107.92,22.8,-238.64
3838.5152,349.957,-217.343,948.855,-1356.25,-4462.5,700.0,-121.6,24.32,-243.2
3838.5652,347.761,-216.916,950.624,-1417.5,-4926.25,358.75,-109.44,24.32,-235.6
3838.6152,354.166,-215.879,943.792,-2012.5,-4996.25,61.25,-107.92,22.8,-234.08
3838.6652,352.641,-218.99,947.757,-2091.25,-5092.5,236.25,-103.36,19.76,-238.64
3838.7152,360.815,-221.491,948.428,1023.75,-3062.5,-682.5,-103.36,16.72,-237.12
3838.7652,336.964,-202.398,950.075,-1968.75,-3788.75,-463.75,-117.04,41.04,-241.68
3838.8152,340.868,-214.232,953.308,-2143.75,-4628.75,638.75,-107.92,25.84,-238.64
3838.8652,351.238,-220.576,946.476,-1058.75,-5136.25,1015.0,-103.36,15.2,-252.32
3838.9152,343.857,-206.973,949.282,-1058.75,-4130.0,210.0,-100.32,18.24,-237.12
3838.9652,349.408,-219.051,952.027,-1680.0,-5635.0,-175.0,-97.28,21.28,-241.68
3839.0152,351.116,-210.023,947.574,-1487.5,-4672.5,463.75,-106.4,22.8,-247.76
3839.0652,346.663,-215.696,947.452,-1137.5,-4943.75,183.75,-107.92,15.2,-244.72
3839.1152,354.898,-210.145,948.428,-927.5,-4970.0,-350.0,-114.0,25.84,-232.56
3839.1652,341.905,-204.777,950.38,-1697.5,-4427.5,-472.5,-98.8,13.68,-238.64
3839.2152,342.942,-206.058,950.258,-2030.0,-4830.0,735.0,-100.32,21.28,-240.16
3839.2652,347.151,-214.11,949.892,-1435.0,-4838.75,1741.25,-109.44,24.32,-234.08
3839.3152,343.796,-215.086,950.807,-1312.5,-5075.0,1120.0,-120.08,7.6,-246.24
3839.3652,345.687,-208.254,948.794,-2100.0,-5617.5,-35.0,-120.08,18.24,-234.08
3839.4152,348.981,-219.722,940.986,-2362.5,-5556.25,472.5,-95.76,19.76,-240.16
3839.4652,363.133,-227.103,945.073,-673.75,-4917.5,568.75,-103.36,13.68,-237.12
3839.5154,345.687,-195.383,950.075,-1172.5,-3325.0,-148.75,-118.56,25.84,-224.96
3839.5652,341.295,-205.814,950.929,-2686.25,-3578.75,498.75,-110.96,15.2,-241.68
3839.6152,344.04,-215.391,951.722,-1662.5,-5565.0,1881.25,-109.44,15.2,-240.16
3839.6652,346.114,-208.925,945.805,-1251.25,-4987.5,1487.5,-94.24,4.56,-240.16
3839.7152,350.384,-215.574,950.014,-1986.25,-5118.75,1330.0,-110.96,41.04,-238.64
3839.7652,347.761,-211.304,946.598,-1216.25,-4401.25,752.5,-115.52,13.68,-234.08
3839.8152,342.881,-215.452,949.648,-1627.5,-4287.5,236.25,-107.92,15.2,-229.52
3839.8652,347.639,-214.171,949.16,-446.25,-4716.25,-551.25,-114.0,22.8,-224.96
3839.9152,347.822,-198.067,949.709,-997.5,-4200.0,-455.0,-94.24,28.88,-240.16
3839.9652,342.942,-202.825,951.6,-2056.25,-4882.5,630.0,-109.44,30.4,-241.68
3840.0152,346.114,-211.914,952.027,-1688.75,-4935.0,1373.75,-118.56,18.24,-249.28
3840.0652,346.541,-211.487,948.672,-1478.75,-5110.0,1426.25,-124.64,18.24,-243.2
3840.1152,345.809,-210.877,950.868,-1400.0,-4891.25,1146.25,-109.44,34.96,-237.12
3840.1652,351.055,-210.633,942.145,-2458.75,-5293.75,472.5,-114.0,16.72,-244.72
3840.2152,358.558,-221.247,948.184,-2152.5,-5258.75,568.75,-101.84,16.72,-235.6
3840.2652,352.824,-201.239,949.465,-953.75,-2345.0,78.75,-110.96,6.08,-247.76
3840.3152,332.694,-208.803,951.173,-2275.0,-5083.75,367.5,-121.6,19.76,-231.04
3840.3652,349.713,-215.147,951.112,-2660.0,-5250.0,1417.5,-117.04,24.32,-250.8
3840.4152,343.491,-217.099,949.465,-1242.5,-4690.0,1872.5,-98.8,22.8,-238.64
3840.4652,344.162,-216.672,949.221,-1828.75,-5783.75,1452.5,-109.44,24.32,-229.52
3840.5152,354.715,-217.343,950.868,-1715.0,-4716.25,78.75,-101.84,12.16,-252.32
3840.5652,340.014,-221.308,948.672,-1478.75,-5556.25,43.75,-132.24,19.76,-244.72
3840.6152,349.957,-215.574,948.367,-595.0,-5757.5,-87.5,-109.44,28.88,-235.6
3840.6652,351.421,-207.095,948.367,-910.0,-4357.5,-227.5,-98.8,18.24,-240.16
3840.7152,348.615,-207.217,948.367,-1907.5,-4768.75,411.25,-101.84,25.84,-246.24
3840.7652,349.164,-213.805,949.892,-1898.75,-4506.25,411.25,-109.44,19.76,-224.96
3840.8152,345.809,-216.916,951.112,-962.5,-4856.25,1102.5,-124.64,19.76,-253.84
3840.8653,349.53,-208.864,945.134,-726.25,-5197.5,1163.75,-133.76,15.2,-247.76
3840.9152,353.922,-216.306,944.646,-3342.5,-4847.5,315.0,-92.72,15.2,-247.76
3840.9652,363.987,-229.116,949.343,638.75,-4663.75,700.0,-103.36,22.8,-229.52
3841.0152,354.532,-194.956,946.964,8.75,-2082.5,-603.75,-107.92,18.24,-238.64
3841.0652,328.912,-210.511,951.417,-2712.5,-4375.0,-385.0,-115.52,19.76,-235.6
3841.1152,342.332,-220.881,952.515,-1610.0,-4926.25,1811.25,-112.48,27.36,-234.08
3841.1652,347.151,-213.805,945.012,-962.5,-4908.75,2030.0,-110.96,25.84,-240.16
3841.2152,350.018,-222.04,949.953,-1575.0,-5486.25,638.75,-106.4,22.8,-238.64
3841.2652,354.898,-216.794,951.051,-1146.25,-4278.75,-525.0,-103.36,19.76,-240.16
3841.3152,334.585,-218.868,949.953,-1540.0,-5145.0,-621.25,-109.44,9.12,-244.72
3841.3652,355.752,-209.535,947.025,17.5,-5836.25,105.0,-103.36,10.64,-234.08
3841.4152,355.264,-200.507,947.025,-997.5,-4138.75,245.0,-107.92,28.88,-243.2
3841.4652,346.114,-207.034,950.868,-2222.5,-4217.5,-70.0,-91.2,28.88,-234.08
3841.5152,348.127,-212.89,950.929,-1933.75,-4480.0,752.5,-92.72,34.96,-235.6
3841.5652,338.977,-215.574,951.234,-1391.25,-4725.0,1855.0,-101.84,24.32,-243.2
3841.6152,346.114,-205.57,949.465,-1102.5,-5678.75,910.0,-110.96,10.64,-238.64
3841.6652,349.164,-208.986,947.513,-2887.5,-5538.75,-166.25,-117.04,22.8,-238.64
3841.7152,351.848,-225.334,946.232,-840.0,-5302.5,507.5,-89.68,25.84,-238.64
3841.7652,365.146,-206.302,950.441,866.25,-3360.0,140.0,-101.84,27.36,-238.64
3841.8152,329.949,-201.91,949.343,-2502.5,-3648.75,428.75,-104.88,24.32,-246.24
3841.8652,347.151,-217.953,951.112,-2231.25,-5101.25,1575.0,-112.48,18.24,-234.08
3841.9152,343.369,-219.783,953.003,-1050.0,-4812.5,1758.75,-114.0,25.84,-249.28
3841.9652,339.038,-214.903,951.417,-2038.75,-5311.25,1277.5,-100.32,22.8,-250.8
3842.0152,353.068,-218.075,951.6,-1242.5,-4313.75,-490.0,-104.88,7.6,-235.6
3842.0652,337.879,-211.975,949.404,-1776.25,-4375.0,8.75,-109.44,36.48,-250.8
3842.1152,349.408,-214.293,945.744,-393.75,-5687.5,87.5,-114.0,19.76,-241.68
3842.1652,357.277,-204.411,949.648,-560.0,-4226.25,297.5,-121.6,21.28,-240.16
3842.2153,337.513,-200.873,952.515,-1933.75,-4103.75,411.25,-114.0,18.24,-252.32
3842.2652,349.469,-217.831,951.661,-1855.0,-4585.0,1050.0,-91.2,21.28,-243.2
3842.3152,340.868,-212.524,950.563,-1076.25,-4462.5,1505.0,-98.8,22.8,-226.48
3842.3652,341.173,-214.903,951.478,-1216.25,-5372.5,1146.25,-109.44,19.76,-252.32
3842.4152,344.223,-208.498,949.77,-1960.0,-5451.25,78.75,-104.88,13.68,-238.64
3842.4652,343.674,-218.624,946.049,-2301.25,-4917.5,420.0,-121.6,24.32,-244.72
3842.5152,359.168,-214.354,950.807,770.0,-3911.25,420.0,-112.48,38.0,-232.56
3842.5652,341.844,-197.396,950.502,-1408.75,-2555.0,586.25,-94.24,21.28,-234.08
3842.6152,334.707,-212.097,952.21,-2817.5,-4952.5,1041.25,-89.68,24.32,-246.24
3842.6652,343.674,-221.308,952.82,-1820.0,-5258.75,1680.0,-95.76,27.36,-241.68
3842.7152,340.807,-209.657,949.465,-1085.0,-4182.5,1557.5,-124.64,19.76,-238.64
3842.7652,346.663,-218.807,952.637,-1793.75,-5285.0,315.0,-107.92,22.8,-228.0
3842.8152,348.615,-212.89,951.966,-1268.75,-4235.0,-96.25,-89.68,28.88,-252.32
3842.8652,337.513,-213.988,949.465,-1610.0,-5250.0,26.25,-95.76,27.36,-246.24
3842.9152,356.057,-210.877,949.831,-682.5,-4523.75,271.25,-112.48,16.72,-244.72
3842.9652,340.929,-204.167,950.868,-1120.0,-3762.5,376.25,-110.96,24.32,-244.72
3843.0152,340.624,-209.23,951.295,-2520.0,-4716.25,700.0,-121.6,22.8,-226.48
3843.0652,341.783,-217.16,952.82,-1697.5,-4453.75,1373.75,-115.52,12.16,-249.28
3843.1152,338.489,-213.195,951.051,-1356.25,-4952.5,1592.5,-101.84,16.72,-231.04
3843.1652,339.831,-209.535,948.672,-1925.0,-5101.25,183.75,-107.92,16.72,-246.24
3843.2152,345.565,-213.866,947.086,-2686.25,-5346.25,376.25,-103.36,21.28,-234.08
3843.2652,357.033,-225.639,952.942,-918.75,-5206.25,945.0,-104.88,12.16,-255.36
3843.3152,353.068,-203.008,951.112,87.5,-2870.0,17.5,-115.52,18.24,-238.64
3843.3652,323.971,-207.766,953.186,-2607.5,-4313.75,227.5,-103.36,31.92,-246.24
3843.4152,343.369,-220.759,948.855,-2152.5,-5048.75,1513.75,-91.2,34.96,-228.0
3843.4652,342.271,-220.21,954.406,-1076.25,-4392.5,1986.25,-98.8,16.72,-247.76
3843.5152,339.099,-215.269,949.831,-2108.75,-5670.0,1032.5,-100.32,12.16,-241.68
3843.5653,348.249,-216.855,948.733,-1015.0,-4436.25,70.0,-107.92,21.28,-244.72
3843.6152,337.147,-216.733,949.282,-1697.5,-4357.5,-148.75,-97.28,13.68,-258.4
3843.6652,348.371,-214.964,948.245,-603.75,-4978.75,-87.5,-94.24,28.88,-247.76
3843.7152,345.809,-205.265,951.295,-822.5,-3946.25,210.0,-94.24,22.8,-246.24
3843.7652,333.548,-207.034,953.491,-2117.5,-4628.75,472.5,-95.76,13.68,-243.2
3843.8152,340.807,-214.537,951.051,-1452.5,-4751.25,1435.0,-117.04,19.76,-241.68
3843.8652,336.598,-214.354,953.491,-1662.5,-4401.25,1365.0,-118.56,27.36,-240.16
3843.9152,342.21,-216.062,950.685,-1435.0,-5223.75,787.5,-98.8,12.16,-232.56
3843.9652,342.576,-209.718,950.685,-1741.25,-5197.5,638.75,-98.8,21.28,-250.8
3844.0152,339.831,-220.881,946.659,-2275.0,-5320.0,848.75,-104.88,21.28,-244.72
3844.0652,353.007,-213.5,949.709,612.5,-3263.75,210.0,-127.68,28.88,-256.88
3844.1152,331.352,-199.531,950.38,-2423.75,-3412.5,201.25,-112.48,21.28,-228.0
3844.1652,334.646,-220.576,952.942,-2493.75,-4856.25,1225.0,-101.84,19.76,-241.68
3844.2152,343.674,-223.199,951.844,-866.25,-4628.75,1925.0,-104.88,28.88,-243.2
3844.2652,332.999,-209.047,948.367,-1513.75,-5005.0,1163.75,-109.44,25.84,-250.8
3844.3152,347.273,-226.371,952.759,-1312.5,-5057.5,-332.5,-107.92,16.72,-235.6
3844.3652,341.234,-212.28,948.611,-1435.0,-4060.0,-96.25,-117.04,18.24,-238.64
3844.4152,338.367,-220.515,950.502,-822.5,-5171.25,437.5,-120.08,24.32,-250.8
3844.4652,344.528,-205.326,950.258,-953.75,-4383.75,157.5,-88.16,28.88,-249.28
3844.5152,337.513,-207.278,952.271,-1837.5,-3998.75,-306.25,-101.84,25.84,-234.08
3844.5652,339.648,-213.744,951.783,-2082.5,-4935.0,700.0,-115.52,31.92,-232.56
3844.6152,343.796,-218.136,950.258,-1338.75,-4208.75,1671.25,-106.4,12.16,-244.72
3844.6652,334.158,-216.611,953.369,-1251.25,-4838.75,1128.75,-120.08,18.24,-247.76
3844.7152,335.439,-210.938,951.722,-1933.75,-5407.5,166.25,-95.76,22.8,-243.2
3844.7652,340.746,-212.463,952.393,-2546.25,-4760.0,280.0,-101.84,34.96,-246.24
3844.8154,352.397,-227.652,950.868,-673.75,-4760.0,726.25,-107.92,38.0,-246.24
3844.8652,329.217,-195.871,952.698,-2143.75,-3447.5,-542.5,-97.28,10.64,-241.68
3844.9152,325.313,-216.428,954.711,-2983.75,-4987.5,708.75,-89.68,13.68,-231.04
3844.9652,337.391,-220.881,952.942,-1207.5,-5757.5,2336.25,-109.44,28.88,-261.44
3845.0152,341.173,-217.892,950.197,-813.75,-4725.0,997.5,-103.36,28.88,-244.72
3845.0652,338.611,-220.576,952.454,-2642.5,-5705.0,-175.0,-103.36,30.4,-234.08
3845.1152,346.663,-218.868,948.977,-1461.25,-4147.5,-43.75,-101.84,39.52,-224.96
3845.1652,330.254,-221.064,950.441,-1233.75,-4952.5,516.25,-106.4,21.28,-235.6
3845.2152,343.674,-216.428,949.343,-446.25,-5250.0,70.0,-118.56,27.36,-246.24
3845.2652,340.685,-207.034,950.319,-1015.0,-4550.0,-691.25,-92.72,16.72,-243.2
3845.3152,333.06,-209.291,952.637,-2283.75,-4217.5,-708.75,-95.76,24.32,-232.56
